timestamp,accWrtEarthX,accWrtEarthY,accWrtEarthZ,lat,long,speed,accLiX,accLiY,accLiZ,accX,accY,accZ,magX,magY,magZ,anomalyStatus,
2022-04-15 10:34:01.12,0.0,0.0,0.0,40.4296363,-86.9102813,6.8924737,0.0,0.0,0.0,-4.983651,8.746365,1.6648064,26.19375,-31.050001,11.19375,0,
2022-04-15 10:34:01.318,-0.229174,0.5760776,0.15348333,40.4296363,-86.9102813,6.8924737,-0.06118107,0.08228302,0.6304202,-4.829314,8.389834,1.6007984,26.325,-30.91875,10.762501,0,
2022-04-15 10:34:01.519,-0.12523529,0.5355252,-0.37203008,40.4296363,-86.9102813,6.8924737,-0.34465313,-0.291749,0.48679996,-4.0295134,8.782856,1.2496517,26.475,-30.768751,10.70625,0,
2022-04-15 10:34:01.718,-0.34973428,0.073494,0.17858088,40.4296786,-86.9103146,4.7110467,0.29407883,0.035787582,0.26803625,-5.159524,8.430512,1.4117653,26.531252,-30.91875,10.70625,0,
2022-04-15 10:34:01.917,-0.26838398,0.24032065,-0.036969747,40.4296786,-86.9103146,4.7110467,0.0633688,-0.11809254,0.33643615,-5.0273204,8.297112,1.3256238,27.093752,-30.91875,11.175,0,
2022-04-15 10:34:02.117,-0.045893945,0.18507864,-0.2397021,40.4296786,-86.9103146,4.7110467,-0.17478609,-0.1848383,0.17059338,-4.910072,8.944371,0.573081,26.400002,-31.2,10.6125,0,
2022-04-15 10:34:02.317,0.03866434,-0.034498163,0.10667263,40.4296786,-86.9103146,4.7110467,0.026062489,0.10871315,-0.03957653,-5.3718867,8.606983,0.9499506,26.062502,-30.91875,11.306251,0,
2022-04-15 10:34:02.517,0.6649035,-0.23749179,-0.092210256,40.4296786,-86.9103146,4.7110467,-0.40641928,0.06099224,-0.581468,-6.6017976,9.401401,0.79800636,25.987501,-30.6375,10.181251,0,
2022-04-15 10:34:02.717,0.4305902,0.8641195,0.40379578,40.4297039,-86.9103331,4.6465545,-0.6806555,0.6094246,0.5103641,-5.2893343,8.12124,0.5288138,25.29375,-30.712502,11.925,0,
2022-04-15 10:34:02.917,0.10109453,0.42788756,-0.3593507,40.4297039,-86.9103331,4.6465545,-0.4467759,-0.14237404,0.32025266,-4.35733,8.170293,0.24765715,26.56875,-30.73125,12.243751,0,
2022-04-15 10:34:03.117,-0.45950034,-0.2538283,-0.6511451,40.4297039,-86.9103331,4.6465545,0.17860651,-0.8169751,-0.014515042,-5.2079782,8.781659,0.47976094,26.19375,-30.825,11.775001,0,
2022-04-15 10:34:03.318,-0.03654614,0.31893235,-0.13988148,40.4297039,-86.9103331,4.6465545,-0.18258238,-0.08090782,0.28764197,-5.1696935,8.250452,0.13878371,26.04375,-31.331251,12.712501,0,
2022-04-15 10:34:03.517,-0.050738275,0.41986454,-0.14062324,40.4297039,-86.9103331,4.6465545,-0.22023726,-0.044879913,0.3848595,-5.4029937,8.246863,-0.43669012,25.987501,-30.69375,14.025001,0,
2022-04-15 10:34:03.717,0.053128023,0.05669023,-0.4964159,40.4297232,-86.9103851,2.597687,-0.22644472,-0.44754696,0.029826611,-5.9150577,8.666803,-0.2739782,25.518751,-29.75625,14.156251,0,
2022-04-15 10:34:03.916,0.5801531,0.20757237,-0.7353822,40.4297232,-86.9103851,2.597687,-0.9318943,-0.22179508,-0.053204745,-4.482953,8.904889,-0.30149564,25.275002,-29.550001,13.500001,0,
2022-04-15 10:34:04.116,0.35150695,0.12345956,-0.13570423,40.4297232,-86.9103851,2.597687,-0.3770442,0.11708927,-0.03664428,-3.9050865,8.26122,-0.13160525,24.187502,-29.587502,12.58125,0,
2022-04-15 10:34:04.316,-0.7581775,-0.03890425,0.3977227,40.4297232,-86.9103851,2.597687,0.77329016,-0.035460472,0.36782467,-5.2259245,8.445468,0.049052864,25.85625,-28.425001,10.481251,0,
2022-04-15 10:34:04.516,-0.29609826,-0.026457794,-0.25259474,40.4297232,-86.9103851,2.597687,0.04962015,-0.36525822,0.12768152,-5.2366924,8.598608,0.148355,25.968752,-28.125002,8.90625,0,
2022-04-15 10:34:04.716,0.12176756,0.30109847,-0.38607696,40.4297451,-86.9104156,1.8802887,-0.4445939,-0.14409924,0.19003883,-4.9722853,8.020741,0.041874398,26.062502,-28.593752,8.925,0,
2022-04-15 10:34:04.915,-0.12280382,0.13551642,-0.3957478,40.4297451,-86.9104156,1.8802887,-0.26199818,-0.3052454,0.16805965,-5.1649075,8.647661,0.2847459,26.868752,-28.087502,7.36875,0,
2022-04-15 10:34:05.116,-0.099718764,0.3130023,-0.47450507,40.4297451,-86.9104156,1.8802887,-0.43194675,-0.21623325,0.3158077,-5.0644093,8.993423,0.1268196,27.6,-27.91875,6.6562505,0,
2022-04-15 10:34:05.315,-0.1450918,0.07036215,-0.09385091,40.4297451,-86.9104156,1.8802887,-0.0674386,-0.09836483,0.1434812,-5.2666025,8.342576,-0.72741807,28.425001,-27.806252,4.4812503,0,
2022-04-15 10:34:05.515,0.077310786,-0.23493248,-0.01429818,40.4297451,-86.9104156,1.8802887,-0.04540348,-0.059880257,-0.23606682,-5.211568,8.056634,-1.099502,28.462502,-27.862501,3.8812501,0,
2022-04-15 10:34:05.715,0.23541662,-0.7383524,-0.10928922,40.4297608,-86.9104175,2.2688136,-0.21712923,-0.20395851,-0.72373015,-5.7224355,8.182257,-1.0911272,29.268751,-27.300001,3.1875002,0,
2022-04-15 10:34:05.915,0.27973455,-0.88754964,-0.2447556,40.4297608,-86.9104175,2.2688136,-0.39024162,-0.24800205,-0.8438646,-6.007181,7.8436728,-1.052842,30.750002,-27.16875,2.7562501,0,
2022-04-15 10:34:06.115,0.11623603,-1.085513,-0.5613606,40.4297608,-86.9104175,2.2688136,-0.79321,-0.3479166,-0.869912,-6.501299,8.319844,-0.99900347,32.325,-27.056252,1.0125,0,
2022-04-15 10:34:06.315,-0.15684524,-0.9942944,-0.7917392,40.4297608,-86.9104175,2.2688136,-1.0067387,-0.45322037,-0.64895403,-5.956932,8.282756,-0.8315059,32.8875,-26.681252,0.20625001,0,
2022-04-15 10:34:06.514,-0.33083707,-0.8868846,-0.79554564,40.4297608,-86.9104175,2.2688136,-0.98947287,-0.54578686,-0.50196683,-5.380262,8.323434,-0.7692925,33.393753,-25.5375,-0.3,0,
2022-04-15 10:34:06.715,-0.17232446,-0.4482599,-0.360561,40.4297851,-86.9104062,3.2717755,-0.5018878,-0.22589397,-0.24024463,-5.2977095,8.382058,-1.2311072,33.46875,-25.35,-0.58125,0,
2022-04-15 10:34:06.914,-0.05549591,-0.007888939,0.0878607,40.4297851,-86.9104062,3.2717755,0.09023571,-0.04485035,0.026598811,-5.473582,8.612965,0.40797627,33.5625,-24.6375,-0.4875,0,
2022-04-15 10:34:07.115,-0.40827268,0.3194753,-0.22493465,40.4297851,-86.9104062,3.2717755,-0.24535513,-0.20356083,0.46659458,-4.90409,8.646464,0.53240305,34.78125,-24.431252,-1.6125001,0,
2022-04-15 10:34:07.315,-0.49341118,0.63821584,-0.3246263,40.4297851,-86.9104062,3.2717755,-0.34939814,-0.15777206,0.78050315,-3.946961,8.633304,0.14596218,35.643753,-24.562502,-2.23125,0,
2022-04-15 10:34:07.515,-0.3198249,0.8546381,0.47738826,40.4297851,-86.9104062,3.2717755,0.44710302,0.1708231,0.91187286,-4.9639106,8.208578,0.31226337,35.100002,-24.337502,-1.1812501,0,
2022-04-15 10:34:07.714,-0.3364357,0.48864818,0.28971872,40.4298191,-86.9103975,4.1422353,0.2937994,-0.05394745,0.5887908,-5.3742795,8.577073,-0.13519448,36.318752,-23.41875,-1.2375001,0,
2022-04-15 10:34:07.914,-0.46852297,0.416291,-0.42536256,40.4298191,-86.9103975,4.1422353,-0.4380908,-0.16051292,0.5967054,-5.4819565,8.52443,0.16151553,37.350002,-22.612501,-0.99375004,0,
2022-04-15 10:34:08.114,-0.5010983,0.47720933,-0.32986447,40.4298191,-86.9103975,4.1422353,-0.33203363,-0.1328144,0.67805076,-5.2139606,8.188239,-0.19142582,36.75,-22.743752,-1.1812501,0,
2022-04-15 10:34:08.314,-0.21914063,0.21106733,-0.087638415,40.4298191,-86.9103975,4.1422353,-0.091647625,-0.06464863,0.2960976,-4.9878387,8.130812,-0.1794617,37.21875,-22.556252,-1.9875001,0,
2022-04-15 10:34:08.514,-0.088412076,-0.017677115,-0.103482485,40.4298191,-86.9103975,4.1422353,-0.10919094,-0.07693195,0.031569153,-4.76411,8.6141615,-0.40677986,37.8375,-22.331251,-0.3375,0,
2022-04-15 10:34:08.714,0.16904491,0.011142857,0.1327442,40.4298586,-86.910395,4.4018598,0.1480565,0.13896275,-0.07134414,-4.3094735,8.737391,-0.4881358,37.8375,-21.993752,-1.25625,0,
2022-04-15 10:34:08.913,0.29039776,-0.0541102,0.4488225,40.4298586,-86.910395,4.4018598,0.470551,0.15168571,-0.21041286,-4.715057,8.652447,-0.53240305,37.725002,-21.6375,-1.9125,0,
2022-04-15 10:34:09.114,0.32558966,0.031038344,0.51090395,40.4298586,-86.910395,4.4018598,0.5381241,0.23893166,-0.14604446,-4.935197,8.520842,-0.18783657,38.23125,-21.69375,-1.7625,0,
2022-04-15 10:34:09.314,0.09436951,0.0315234,0.17000636,40.4298586,-86.910395,4.4018598,0.1748724,0.089240074,-0.016041875,-5.026124,8.236095,0.35174492,38.41875,-20.98125,-2.3625002,0,
2022-04-15 10:34:09.513,-0.16931456,0.13004485,0.011466164,40.4298586,-86.910395,4.4018598,0.004170418,-0.06558895,0.2034484,-5.8935223,8.428718,-0.12203395,38.8125,-20.550001,-2.5500002,0,
2022-04-15 10:34:09.713,-0.401236,0.2144892,-0.34791067,40.4299025,-86.9103957,4.7710896,-0.37777805,-0.17947865,0.39129132,-5.0368915,8.554341,-0.08255238,39.43125,-21.675001,-3.35625,0,
2022-04-15 10:34:09.912,-0.30990177,0.25100422,-0.45082524,40.4299025,-86.9103957,4.7710896,-0.4625888,-0.07718754,0.3772789,-4.8083773,8.6345005,-0.1591227,38.90625,-22.0125,-3.075,0,
2022-04-15 10:34:10.112,-0.11646399,0.39646557,0.3687151,40.4299025,-86.9103957,4.7710896,0.359663,0.119132996,0.40391764,-5.6147585,8.49811,0.25004998,39.61875,-21.31875,-1.10625,0,
2022-04-15 10:34:10.313,-0.1519054,0.2380714,0.10284427,40.4299025,-86.9103957,4.7710896,0.08412218,0.016224861,0.28808054,-5.7786665,8.157132,0.6412765,39.80625,-20.362501,-1.9125,0,
2022-04-15 10:34:10.512,-0.119394384,0.17573074,-0.13004662,40.4299025,-86.9103957,4.7710896,-0.13095713,-0.013863564,0.21143904,-4.5726843,8.4813595,-0.0071784677,40.0875,-19.518751,-1.5375,0,
2022-04-15 10:34:10.714,0.040950883,0.1051871,0.15272513,40.4299521,-86.910396,5.027501,0.15680552,0.07993221,0.0713382,-5.0333023,8.22772,0.18903299,39.675003,-19.6875,-2.25,0,
2022-04-15 10:34:10.912,0.0107407905,0.096508935,0.0868583,40.4299521,-86.910396,5.027501,0.0916605,0.04933834,0.078344,-4.989035,8.62134,0.02213361,39.768753,-19.48125,-2.3812501,0,
2022-04-15 10:34:11.114,-0.05597359,0.06977745,-0.1012707,40.4299521,-86.910396,5.027501,-0.10277605,-0.0054473877,0.08755056,-4.9429736,8.496913,0.08793623,39.9375,-19.368752,-2.23125,0,
2022-04-15 10:34:11.314,0.01689297,0.037182167,0.052898712,40.4299521,-86.910396,5.027501,0.054967403,0.029332161,0.024173714,-4.942375,8.495118,0.098703936,40.143753,-19.40625,-2.2125,0,
2022-04-15 10:34:11.514,-0.009149261,-0.011447154,0.08916468,40.4299521,-86.910396,5.027501,0.087433815,-0.021938324,-0.006254833,-4.7336016,8.747561,-0.060418773,40.425003,-19.331251,-2.30625,0,
2022-04-15 10:34:11.712,0.067796364,0.054499395,0.032453593,40.4300003,-86.9103988,5.443964,0.034148693,0.08060455,0.030927982,-3.1286156,9.223733,0.33379877,40.3875,-19.48125,-2.15625,0,
2022-04-15 10:34:11.911,0.45527864,0.5178666,0.9437129,40.4300003,-86.9103988,5.443964,0.9921906,0.55678463,0.26759526,-4.2041893,8.714062,-0.010169496,40.331253,-19.6875,-2.2125,0,
2022-04-15 10:34:12.111,0.47235936,0.4814296,1.3529247,40.4300003,-86.9103988,5.443964,1.4396563,0.440094,0.13787603,-4.77069,8.585149,-0.38763726,40.21875,-20.118752,-2.30625,0,
2022-04-15 10:34:12.312,0.33362523,-0.21815628,0.10790745,40.4300003,-86.9103988,5.443964,0.11538887,0.12001419,-0.37792057,-5.8920264,8.155637,-0.5937191,40.18125,-20.23125,-2.3812501,0,
2022-04-15 10:34:12.511,-0.1500405,-0.7915155,-0.7584219,40.4300003,-86.9103988,5.443964,-0.9260483,-0.35061932,-0.49367324,-5.6931233,7.9968133,-0.80817586,40.10625,-20.325,-2.41875,0,
2022-04-15 10:34:12.713,-0.11326006,-0.8540273,-0.51957715,40.4300521,-86.9104004,5.671085,-0.65372086,-0.4155016,-0.6419956,-5.0419765,8.4451685,-0.60598236,40.03125,-20.41875,-2.41875,0,
2022-04-15 10:34:12.911,0.2626152,-0.35366857,0.04234144,40.4300521,-86.9104004,5.671085,0.028166771,0.041856766,-0.439654,-4.9860444,8.443374,-0.49830532,40.050003,-20.56875,-2.53125,0,
2022-04-15 10:34:13.11,0.12708461,-0.32633504,-0.015359722,40.4300521,-86.9104004,5.671085,-0.048667908,-0.0547781,-0.3427999,-5.1810594,8.362915,-0.5910272,39.99375,-20.831251,-2.6625001,0,
2022-04-15 10:34:13.31,0.061698012,-0.38502368,-0.1439306,40.4300521,-86.9104004,5.671085,-0.18938208,-0.105955124,-0.35450506,-5.0126643,8.527422,-0.55812585,40.068752,-20.868752,-2.775,0,
2022-04-15 10:34:13.51,0.12188554,-0.21456733,-0.05726725,40.4300521,-86.9104004,5.671085,-0.06970549,0.008576393,-0.24339753,-5.075775,8.473583,-0.5135596,40.162502,-20.85,-2.90625,0,
2022-04-15 10:34:13.711,0.06512932,-0.113605805,-0.028672948,40.4301067,-86.9104014,6.294926,-0.035829067,0.009102821,-0.1288552,-4.7491546,8.546564,-0.62183475,40.29375,-20.8125,-2.7375002,0,
2022-04-15 10:34:13.91,0.13417423,-0.083993696,0.14735766,40.4301067,-86.9104014,6.294926,0.15011597,0.043747902,-0.14940971,-4.8394837,8.609376,-0.72711897,40.350002,-20.962502,-2.8500001,0,
2022-04-15 10:34:14.111,0.18352722,-0.11567414,0.06485489,40.4301067,-86.9104014,6.294926,0.07248449,0.09618473,-0.19173783,-4.4282174,8.585747,-0.8180462,40.29375,-21.28125,-2.90625,0,
2022-04-15 10:34:14.311,0.14286426,-0.08854459,0.30095735,40.4301067,-86.9104014,6.294926,0.2983122,0.012263298,-0.17229372,-4.7117667,8.720343,-0.8952148,40.331253,-21.35625,-2.86875,0,
2022-04-15 10:34:14.51,0.18614742,-0.12014815,0.039436486,40.4301067,-86.9104014,6.294926,0.046625137,0.098059654,-0.19710928,-4.7141595,8.65454,-0.8012965,40.331253,-21.2625,-2.71875,0,
2022-04-15 10:34:14.71,0.030219067,-0.0021151192,-0.03632944,40.4301685,-86.9104012,7.012307,-0.030289173,0.033844948,-0.01321286,-4.8529434,8.589934,-0.93260264,40.237503,-21.09375,-2.7375002,0,
2022-04-15 10:34:14.91,0.010162283,-0.13812947,-0.04476597,40.4301685,-86.9104012,7.012307,-0.06896067,-0.040240288,-0.121705234,-4.6342993,8.708079,-0.9729815,40.2,-21.13125,-2.79375,0,
2022-04-15 10:34:15.109,0.14359392,-7.337779E-4,0.12817018,40.4301685,-86.9104012,7.012307,0.14707994,0.09587383,-0.07888627,-4.698008,8.741281,-0.8150552,40.162502,-21.16875,-2.7,0,
2022-04-15 10:34:15.309,0.006152382,0.03919614,-0.019939076,40.4301685,-86.9104012,7.012307,-0.010072231,0.027810097,0.03311956,-4.7192445,8.535198,-0.9553344,40.03125,-21.16875,-2.8125,0,
2022-04-15 10:34:15.509,-0.020283705,-0.055728212,0.004907676,40.4301685,-86.9104012,7.012307,-0.008533001,-0.04374981,-0.03942448,-4.753641,8.688937,-0.8111669,40.0125,-21.112501,-2.79375,0,
2022-04-15 10:34:15.709,0.030432884,0.045496695,0.047174163,40.430239,-86.9103968,7.9346557,0.060337543,0.034724236,0.019367993,-4.900501,8.454441,-0.9610174,39.956253,-21.0375,-2.7,0,
2022-04-15 10:34:15.909,-0.08802466,-0.10653972,-0.0591537,40.430239,-86.9103968,7.9346557,-0.09180498,-0.11045742,-0.044375837,-4.751847,8.447262,-0.8446664,39.787502,-21.112501,-2.60625,0,
2022-04-15 10:34:16.109,-0.073219515,-0.034143165,0.023203893,40.430239,-86.9103968,7.9346557,0.0029454231,-0.083771706,0.00623703,-5.0922256,8.525029,-0.8455637,39.65625,-21.16875,-2.7375002,0,
2022-04-15 10:34:16.308,-0.05385451,-0.020560429,-0.23699485,40.430239,-86.9103968,7.9346557,-0.24218035,0.0023698807,0.028855741,-5.1619167,8.448159,-0.7689934,39.6375,-21.225,-2.71875,0,
2022-04-15 10:34:16.509,-0.10592377,0.012375221,-0.09834504,40.430239,-86.9103968,7.9346557,-0.110706806,-0.058410645,0.0733276,-5.0530434,8.359625,-0.8141579,39.61875,-21.150002,-2.7375002,0,
2022-04-15 10:34:16.71,-0.047740858,-0.050548546,-0.024040157,40.4303197,-86.9103958,8.845381,-0.042085648,-0.05803871,-0.01651001,-5.0416775,8.397611,-0.89072824,39.61875,-21.075,-2.71875,0,
2022-04-15 10:34:16.909,-0.041281912,-0.028901033,-0.0028991129,40.4303197,-86.9103958,8.845381,-0.014849663,-0.048064232,-0.004145801,-4.8643093,8.423334,-0.75463647,39.675003,-21.075,-2.775,0,
2022-04-15 10:34:17.108,-0.006515135,0.032852054,0.0876078,40.4303197,-86.9103958,8.845381,0.089847565,-0.010467529,0.024792671,-4.927121,8.540283,-0.77018976,39.73125,-21.0375,-2.775,0,
2022-04-15 10:34:17.308,0.07823983,0.111578695,0.044334043,40.4303197,-86.9103958,8.845381,0.0731616,0.11053753,0.054457486,-5.0359945,8.685348,-0.6161518,39.9,-20.925001,-2.9437501,0,
2022-04-15 10:34:17.508,0.030410692,0.1693807,-0.08072721,40.4303197,-86.9103958,8.845381,-0.04013443,0.12526321,0.13722199,-4.9929237,8.586944,-0.8033902,40.0875,-20.831251,-3.1125002,0,
2022-04-15 10:34:17.708,0.14463535,-0.025042318,0.11570196,40.4304104,-86.9103953,9.74653,0.13258791,0.0774765,-0.10654241,-4.7970114,8.195417,-1.0247263,40.237503,-20.85,-3.1312501,0,
2022-04-15 10:34:17.907,-0.16854806,-0.17496331,0.083723485,40.4304104,-86.9103953,9.74653,0.025239468,-0.24468613,-0.07430953,-4.8305106,8.508878,-0.64606214,40.331253,-20.85,-3.15,0,
2022-04-15 10:34:18.107,0.014772359,0.14753549,0.046787873,40.4304104,-86.9103953,9.74653,0.076406956,0.07305527,0.11401296,-5.1933227,8.442476,-0.7579266,40.3875,-20.90625,-3.1125002,1,
2022-04-15 10:34:18.307,-0.06622997,-0.061417513,-0.17295812,40.4304104,-86.9103953,9.74653,-0.18901682,-0.047595978,-0.008960724,-4.8885365,8.425727,-0.61435723,40.350002,-20.79375,-3.1312501,0,
2022-04-15 10:34:18.507,0.025089772,0.06328728,0.0684747,40.4304104,-86.9103953,9.74653,0.07958031,0.037955284,0.039369166,-4.87747,8.599206,-0.47018966,40.21875,-20.8125,-3.2250001,0,
2022-04-15 10:34:18.707,0.020780258,0.19833723,0.067817226,40.430505,-86.9103947,10.558052,0.1013093,0.099152565,0.15580064,-4.913063,8.269895,-0.5461618,40.21875,-20.79375,-3.2812502,1,
2022-04-15 10:34:18.907,-0.13259064,-0.010992013,0.052204527,40.430505,-86.9103947,10.558052,0.027377605,-0.12797546,0.057438314,-5.2459645,8.486744,-0.54317075,40.2,-20.85,-3.24375,0,
2022-04-15 10:34:19.11,-0.025743544,0.053967886,-0.16278589,40.430505,-86.9103947,10.558052,-0.15330648,0.040970802,0.06995016,-4.9438705,8.486146,-0.6337989,40.237503,-20.868752,-3.2250001,0,
2022-04-15 10:34:19.306,0.08130863,0.0503609,0.04230233,40.430505,-86.9103947,10.558052,0.062420845,0.08388615,-0.0018840432,-5.1254263,8.367701,-0.5479564,40.21875,-20.831251,-3.16875,0,
2022-04-15 10:34:19.506,-0.081050165,-0.014820566,-0.027896669,40.430505,-86.9103947,10.558052,-0.04317236,-0.06823921,0.0323506,-5.226224,8.290532,-0.60717875,40.18125,-20.75625,-3.1312501,0,
2022-04-15 10:34:19.706,-0.0742552,-0.043311983,-0.0629599,40.4306037,-86.9103928,11.296423,-0.080013275,-0.07015133,0.005511701,-5.1287165,8.314759,-0.5276174,40.143753,-20.71875,-3.1312501,0,
2022-04-15 10:34:19.906,-0.060345892,-0.0100065,-0.02310559,40.4306037,-86.9103928,11.296423,-0.033809185,-0.05086994,0.023341238,-4.9262238,8.366205,-0.58265233,40.162502,-20.831251,-3.15,0,
2022-04-15 10:34:20.107,0.027113058,0.00685794,0.12993966,40.4306037,-86.9103928,11.296423,0.13214922,2.8705597E-4,-0.014246762,-5.006383,8.469994,-0.48245287,40.29375,-20.737501,-3.075,0,
2022-04-15 10:34:20.306,0.048113506,0.10945559,-0.009081779,40.4306037,-86.9103928,11.296423,0.01581049,0.094958305,0.07149029,-4.858028,8.483154,-0.5877371,40.256252,-20.775002,-3.0937502,0,
2022-04-15 10:34:20.506,0.06310964,-1.6078725E-4,0.108276255,40.4306037,-86.9103928,11.296423,0.11544752,0.029761314,-0.03863591,-4.9495535,8.45773,-0.60598236,40.237503,-20.8125,-3.0937502,0,
2022-04-15 10:34:20.707,0.07946363,0.0035952926,0.067758724,40.4307049,-86.9103875,11.904803,0.07878351,0.055207253,-0.04079163,-4.968696,8.475677,-0.54646087,40.2,-20.868752,-3.0,1,
2022-04-15 10:34:20.906,0.0027800137,0.011241505,-0.041122768,40.4307049,-86.9103875,11.904803,-0.037864685,0.016749382,0.010531187,-5.0805607,8.466703,-0.5617151,40.2,-20.94375,-3.05625,0,
2022-04-15 10:34:21.107,-0.012537599,0.01972919,-0.06812923,40.4307049,-86.9103875,11.904803,-0.06558943,0.012705803,0.02691865,-5.0012984,8.52114,-0.52133626,40.21875,-21.018751,-2.9437501,0,
2022-04-15 10:34:21.305,0.018770097,0.07058167,-0.027832892,40.4307049,-86.9103875,11.904803,-0.013166428,0.05643654,0.052443504,-5.081757,8.496614,-0.56530434,40.237503,-21.09375,-2.9625,0,
2022-04-15 10:34:21.505,-0.03994629,-0.093601584,-0.106360815,40.4307049,-86.9103875,11.904803,-0.12802505,-0.0522089,-0.05053121,-4.9639106,8.173583,-0.770788,40.275,-21.1875,-2.9625,0,
2022-04-15 10:34:21.706,-0.14332083,-0.28234655,0.04992395,40.4308139,-86.9103842,12.547561,-0.016671658,-0.27038288,-0.17137092,-4.9046884,8.20798,-0.53270215,40.18125,-21.2625,-2.90625,0,
2022-04-15 10:34:21.905,-0.12301611,-0.058781356,0.06932157,40.4308139,-86.9103842,12.547561,0.038996696,-0.14783955,0.0040521026,-4.6142592,8.2710905,-0.6200402,40.0125,-21.2625,-2.90625,0,
2022-04-15 10:34:22.105,-0.03904521,-0.09221506,0.0837799,40.4308139,-86.9103842,12.547561,0.061481,-0.09567642,-0.06413525,-4.883153,8.2812605,-0.5315057,39.80625,-21.31875,-2.9625,0,
2022-04-15 10:34:22.305,-0.07144308,0.013863277,-0.0771944,40.4308139,-86.9103842,12.547561,-0.08440256,-0.037891388,0.051920414,-5.0629134,8.533403,-0.46271208,39.787502,-21.2625,-3.0937502,0,
2022-04-15 10:34:22.505,0.044783294,0.047437053,-0.21016686,40.4308139,-86.9103842,12.547561,-0.18785286,0.10921192,0.034784883,-4.694718,8.438888,-0.698106,39.600002,-21.225,-3.1312501,0,
2022-04-15 10:34:22.704,0.10700544,-0.06264536,0.1469659,40.4309286,-86.9103803,13.20801,0.1509223,0.031894684,-0.114798844,-4.6142592,8.420941,-0.56440705,39.43125,-21.150002,-3.2062502,0,
2022-04-15 10:34:22.904,0.050699465,-0.02061604,0.1673994,40.4309286,-86.9103803,13.20801,0.16781092,-0.0037736893,-0.053322375,-4.560421,8.341679,-0.6263213,39.05625,-21.0375,-3.2250001,0,
2022-04-15 10:34:23.104,0.055528417,-0.05046965,0.18997812,40.4309286,-86.9103803,13.20801,0.18557215,-0.021439552,-0.08261722,-4.623831,8.278269,-0.5805586,38.71875,-20.868752,-3.6000001,0,
2022-04-15 10:34:23.304,0.022562735,-0.019755848,0.123036854,40.4309286,-86.9103803,13.20801,0.11959028,-0.023199081,-0.034603536,-4.9079785,8.345866,-0.4863412,38.9625,-21.35625,-4.36875,0,
2022-04-15 10:34:23.504,-0.01399035,-0.009110441,-0.1539663,40.4309286,-86.9103803,13.20801,-0.15285254,0.024460793,0.004703164,-5.1616178,8.466105,-0.33499518,39.300003,-22.3875,-4.65,0,
2022-04-15 10:34:23.709,-0.05400291,0.15838861,-0.28093222,40.4310541,-86.9103842,13.940207,-0.2604952,0.0984602,0.1713885,-5.070092,8.645567,-0.26769704,39.375,-22.837502,-4.4437504,0,
2022-04-15 10:34:23.904,0.06958504,0.13860503,-0.14428467,40.4310541,-86.9103842,13.940207,-0.099050045,0.16101551,0.095575064,-4.671687,8.451151,-0.541077,39.09375,-23.1375,-4.33125,0,
2022-04-15 10:34:24.104,0.06547175,-0.050709955,0.2077557,40.4310541,-86.9103842,13.940207,0.20725632,-0.01818943,-0.082063645,-4.7676992,8.556435,-0.27966115,39.112503,-23.400002,-4.55625,0,
2022-04-15 10:34:24.304,0.009805199,0.14112073,0.039776508,40.4310541,-86.9103842,13.940207,0.06555796,0.06272888,0.11558813,-4.9136615,8.539086,-0.42801616,39.16875,-23.94375,-4.8375,0,
2022-04-15 10:34:24.504,0.014393475,-0.014292723,-0.085202575,40.4310541,-86.9103842,13.940207,-0.08120108,0.028665543,-0.015987635,-4.7341995,8.418847,-0.39810586,39.3375,-24.4125,-4.6312504,0,
2022-04-15 10:34:24.703,-0.009928087,-0.059707254,0.11471748,40.4311871,-86.9103881,14.646491,0.10100412,-0.06323242,-0.051219642,-4.733003,8.432008,-0.34097722,39.693752,-24.16875,-4.05,0,
2022-04-15 10:34:24.903,-0.02192161,0.061175056,0.069607876,40.4311871,-86.9103881,14.646491,0.07219982,-0.0032224655,0.062008083,-4.9313083,8.69133,-0.28594232,39.54375,-23.268751,-3.4875002,0,
2022-04-15 10:34:25.103,0.09060463,0.14084974,-0.109898485,40.4311871,-86.9103881,14.646491,-0.07235384,0.16780567,0.082046926,-4.933701,8.600103,-0.4552345,39.318752,-22.03125,-3.24375,0,
2022-04-15 10:34:25.303,0.10556285,-0.09132417,0.0023249066,40.4311871,-86.9103881,14.646491,0.0062270164,0.048186302,-0.13087526,-4.5592246,8.273483,-0.49292147,39.43125,-21.243752,-3.5062501,0,
2022-04-15 10:34:25.503,-0.0778037,-0.10012564,0.26050112,40.4311871,-86.9103881,14.646491,0.23910284,-0.15591526,-0.04959494,-4.9770713,8.9159565,-0.0035892338,39.787502,-20.8875,-3.8625002,0,
2022-04-15 10:34:25.703,0.090827584,0.42553324,-0.27094808,40.4313244,-86.9103909,15.248944,-0.17095232,0.34353256,0.33985555,-4.889434,8.513962,-0.60598236,39.9,-20.831251,-3.8437502,0,
2022-04-15 10:34:25.903,0.12348261,-0.36050674,0.11564255,40.4313244,-86.9103909,15.248944,0.093578815,-0.090065956,-0.37645367,-4.7018967,8.223832,-0.18604197,39.862503,-20.550001,-3.73125,0,
2022-04-15 10:34:26.102,-0.3656781,0.31414115,0.22651781,40.4313244,-86.9103909,15.248944,0.20010185,-0.19905376,0.4517215,-5.174778,9.032906,-0.11964113,39.975002,-20.1375,-3.9375002,1,
2022-04-15 10:34:26.302,0.24327597,0.26512548,-0.3481839,40.4313244,-86.9103909,15.248944,-0.22931719,0.42820835,0.1214824,-4.9663033,8.044371,-0.65084773,39.975002,-20.38125,-4.21875,0,
2022-04-15 10:34:26.502,-0.30621666,-0.36841944,0.06523905,40.4313244,-86.9103909,15.248944,-0.020359516,-0.45623875,-0.15871176,-4.982754,8.29771,-0.07597212,40.0125,-20.737501,-4.125,1,
2022-04-15 10:34:26.702,-0.409589,0.17213511,-0.23084813,40.4314609,-86.9103952,15.84305,-0.27016544,-0.22262096,0.35795957,-4.7742796,8.545069,-0.34486556,40.10625,-20.681252,-3.9375002,1,
2022-04-15 10:34:26.902,0.124247015,0.04504356,0.2846552,40.4314609,-86.9103952,15.84305,0.3043518,0.07069683,-0.029440582,-4.9118667,8.517551,-0.22103699,40.143753,-20.625,-4.14375,1,
2022-04-15 10:34:27.102,-0.04160384,0.15907653,0.07480728,40.4314609,-86.9103952,15.84305,0.089131355,0.025526047,0.15503669,-4.9313083,8.353344,-0.38614175,40.0875,-20.775002,-4.05,1,
2022-04-15 10:34:27.302,-0.038351864,-0.05473331,0.07282214,40.4314609,-86.9103952,15.84305,0.059066772,-0.07450104,-0.027025491,-5.2606206,8.253742,-0.2000998,40.162502,-20.400002,-3.6937501,1,
2022-04-15 10:34:27.502,-0.18813506,0.061328217,-0.20503576,40.4314609,-86.9103952,15.84305,-0.22193718,-0.09256077,0.15287904,-5.252246,8.376674,-0.047258247,40.425003,-19.800001,-3.6562502,0,
2022-04-15 10:34:27.701,-0.08506117,0.11571067,-0.11056875,40.4316085,-86.9103992,16.425093,-0.111599445,0.0055322647,0.14270517,-5.1457653,8.410771,0.034695927,40.4625,-19.6875,-4.0125003,0,
2022-04-15 10:34:27.901,-0.05420478,0.20623106,0.026759319,40.4316085,-86.9103992,16.425093,0.037700176,0.05241108,0.20498109,-5.000102,8.480164,-0.07148558,40.4625,-19.6875,-4.0125003,0,
2022-04-15 10:34:28.103,0.0648433,0.12825224,0.13115707,40.4316085,-86.9103992,16.425093,0.14939213,0.09931469,0.07532632,-5.325825,8.626724,0.02003989,40.4625,-19.987501,-4.0687504,0,
2022-04-15 10:34:28.302,0.021863878,0.13441741,-0.20506212,40.4316085,-86.9103992,16.425093,-0.18048286,0.13267231,0.10208101,-5.4900327,8.238788,-0.11365908,40.5,-20.212502,-4.275,0,
2022-04-15 10:34:28.501,-0.16252904,-0.14182532,-0.15129402,40.4316085,-86.9103992,16.425093,-0.18143988,-0.1882286,-0.032704085,-5.1326046,7.967202,0.093918286,40.518753,-20.38125,-3.9,0,
2022-04-15 10:34:28.701,-0.28436527,-0.04407379,0.13917345,40.4317607,-86.9104076,16.724531,0.104178905,-0.28019762,0.11318751,-5.087739,8.350054,0.20279172,40.65,-20.025002,-3.7125,0,
2022-04-15 10:34:28.9,0.03064869,0.1605362,0.10251189,40.4317607,-86.9104076,16.724531,0.11632156,0.08915424,0.12546203,-4.618148,8.265707,0.024526432,40.6875,-20.0625,-3.8625002,0,
2022-04-15 10:34:29.101,0.116106406,-0.038360618,0.48287338,40.4317607,-86.9104076,16.724531,0.49118567,0.026379585,-0.07848363,-5.057829,8.532805,0.28115666,40.725002,-20.1375,-3.825,0,
2022-04-15 10:34:29.301,-0.01781404,0.5091752,-0.27566677,40.4317607,-86.9104076,16.724531,-0.2597723,0.30807018,0.41614908,-6.0864434,8.590532,0.3580261,40.987503,-19.931252,-3.61875,1,
2022-04-15 10:34:29.5,0.0031861812,0.29254836,-1.0331421,40.4317607,-86.9104076,16.724531,-1.0118904,0.28363895,0.22046386,-5.413163,8.36471,0.22522444,41.04375,-19.78125,-3.7125,0,
2022-04-15 10:34:29.7,-0.08760129,0.111955404,-0.25055796,40.4319149,-86.9104197,16.81777,-0.25442123,0.008043289,0.13487929,-4.581657,8.014759,0.21206391,41.006252,-19.743752,-3.7687502,0,
2022-04-15 10:34:29.9,-0.2702501,0.011029586,0.4547989,40.4319149,-86.9104197,16.81777,0.42718267,-0.25900745,0.1744388,-5.35753,8.444571,0.45134616,41.006252,-19.743752,-3.7687502,1,
2022-04-15 10:34:30.1,-0.107688524,0.30339518,-0.37211865,40.4319149,-86.9104197,16.81777,-0.37586164,0.103738785,0.30014002,-5.1439705,8.449954,0.392722,41.100002,-19.44375,-4.0125003,1,
2022-04-15 10:34:30.3,-0.09131022,0.38014686,-0.09128828,40.4319149,-86.9104197,16.81777,-0.095963955,0.12392616,0.36961597,-4.9582276,8.4400835,0.4336991,41.04375,-19.9125,-4.2000003,0,
2022-04-15 10:34:30.499,-0.0826261,0.22944039,-0.028061641,40.4319149,-86.9104197,16.81777,-0.032355785,0.054131508,0.2372347,-5.1816573,8.383852,0.4112664,40.96875,-20.175001,-4.2375,0,
2022-04-15 10:34:30.699,-0.08418099,0.10475622,-0.0990438,40.4320681,-86.9104314,16.751623,-0.10568571,-0.009043694,0.12891361,-4.8786664,8.369495,0.37986058,40.800003,-20.4375,-4.1062503,0,
2022-04-15 10:34:30.899,-0.020422827,0.11049698,0.12279246,40.4320681,-86.9104314,16.751623,0.12144852,0.025896072,0.11083463,-4.9061837,8.570791,0.3924229,40.706253,-20.4375,-3.8812501,0,
2022-04-15 10:34:31.099,0.08117491,0.10008496,0.03534234,40.4320681,-86.9104314,16.751623,0.046008587,0.116752625,0.04590729,-4.950152,8.362616,0.3173481,40.706253,-19.987501,-3.7875001,0,
2022-04-15 10:34:31.299,-0.051975105,0.019122241,0.029144293,40.4320681,-86.9104314,16.751623,0.023812294,-0.037810326,0.043815702,-4.99083,8.750552,0.52342993,40.7625,-19.931252,-4.1062503,0,
2022-04-15 10:34:31.499,0.17495239,0.2798884,-0.077190235,40.4320681,-86.9104314,16.751623,-0.030170918,0.30239582,0.15016878,-4.8469615,8.106285,0.032901313,40.7625,-19.931252,-4.1062503,0,
2022-04-15 10:34:31.699,-0.10887046,-0.5732297,0.08844516,40.4322219,-86.91044,16.63258,0.11468649,-0.3945551,-0.4236047,-4.854439,7.98455,0.8389834,40.6875,-20.79375,-4.2375,1,
2022-04-15 10:34:31.899,-0.5919173,0.40963268,0.1481081,40.4322219,-86.91044,16.63258,0.08562708,-0.30746078,0.6619946,-5.257929,8.909077,0.6861419,40.612503,-20.493752,-4.0687504,0,
2022-04-15 10:34:32.099,0.2957837,0.50911456,-0.306766,40.4322219,-86.91044,16.63258,-0.27099276,0.5369501,0.28113806,-4.915755,8.549854,0.40378883,40.6875,-20.081251,-3.8437502,1,
2022-04-15 10:34:32.298,0.062012486,0.17575626,0.06621711,40.4322219,-86.91044,16.63258,0.0682745,0.13899708,0.12304032,-4.8900323,8.190632,0.60000026,40.7625,-19.650002,-4.0875,1,
2022-04-15 10:34:32.498,-0.2740763,0.21497634,0.039367452,40.4322219,-86.91044,16.63258,0.006902218,-0.11294556,0.33178023,-5.4520464,8.36471,0.7516454,40.706253,-19.78125,-4.5,0,
2022-04-15 10:34:32.698,-0.24088407,0.2895766,-0.47423932,40.432368,-86.9104447,16.318075,-0.49845076,-0.0055770874,0.34394535,-5.1412787,8.283952,0.58594245,40.631252,-20.5125,-4.55625,0,
2022-04-15 10:34:32.899,-0.14986011,0.12057852,-0.03217794,40.432368,-86.9104447,16.318075,-0.048803806,-0.06844616,0.17597148,-4.720142,8.371888,0.6684948,40.55625,-20.831251,-4.2000003,0,
2022-04-15 10:34:33.098,-0.0383804,0.1341804,0.18321043,40.432368,-86.9104447,16.318075,0.17725325,0.02468872,0.14496636,-5.118846,8.205886,0.5844469,40.55625,-20.831251,-4.2000003,0,
2022-04-15 10:34:33.298,-0.13888611,0.07069719,-0.16731927,40.432368,-86.9104447,16.318075,-0.17958164,-0.080519676,0.11640531,-5.1619167,8.594122,0.9125627,40.29375,-20.400002,-3.7687502,0,
2022-04-15 10:34:33.498,0.08406407,0.28251773,-0.0821919,40.432368,-86.9104447,16.318075,-0.07607794,0.21889782,0.19983602,-4.8038907,8.463713,0.48753762,40.29375,-20.400002,-3.7687502,0,
2022-04-15 10:34:33.706,0.07880386,-0.097204976,0.16427383,40.4325129,-86.9104523,16.045214,0.17406034,0.007870674,-0.110841274,-4.9878387,8.186744,0.74895346,40.3125,-20.4375,-4.21875,0,
2022-04-15 10:34:33.898,-0.201731,0.017078705,-0.03260979,40.4325129,-86.9104523,16.045214,-0.04895401,-0.16273022,0.114773095,-4.9878387,8.412566,0.74117684,40.331253,-20.85,-4.03125,0,
2022-04-15 10:34:34.097,0.04336252,0.07389424,0.020967526,40.4325129,-86.9104523,16.045214,0.021568775,0.0730114,0.044546902,-4.7336016,8.445766,0.63918275,40.36875,-20.737501,-3.6937501,0,
2022-04-15 10:34:34.297,0.070712134,-0.032173738,0.13673943,40.4325129,-86.9104523,16.045214,0.14286852,0.039255142,-0.052731812,-4.842774,8.416156,0.7295118,40.443752,-20.475,-3.9,0,
2022-04-15 10:34:34.497,-0.02893531,0.0885498,-0.013647631,40.4325129,-86.9104523,16.045214,-0.019012451,0.020792007,0.08983761,-4.9716873,8.47119,0.68853474,40.48125,-20.456251,-3.8437502,0,
2022-04-15 10:34:34.697,0.045229036,-0.04041202,-0.04831129,40.4326534,-86.9104529,15.431318,-0.043242455,0.0212574,-0.060753524,-4.796712,8.355737,0.6646065,40.48125,-20.456251,-3.8437502,0,
2022-04-15 10:34:34.897,-0.044101108,-0.021857062,0.06874419,40.4326534,-86.9104529,15.431318,0.066289425,-0.051820755,0.008289993,-4.910072,8.540583,0.75702924,40.706253,-19.81875,-3.9,0,
2022-04-15 10:34:35.097,0.0410536,0.070304334,-0.051605314,40.4326534,-86.9104529,15.431318,-0.049033165,0.07456112,0.03643614,-4.944768,8.347362,0.57607204,40.706253,-19.81875,-3.9,0,
2022-04-15 10:34:35.297,-0.037951007,-0.0808644,-0.050061774,40.4326534,-86.9104529,15.431318,-0.04858923,-0.072172165,-0.053997934,-5.1352963,8.582457,0.8572287,40.706253,-20.475,-4.2937503,0,
2022-04-15 10:34:35.497,-0.0036077276,0.19604936,-0.22269708,40.4326534,-86.9104529,15.431318,-0.22300768,0.11681461,0.15704864,-5.0653067,8.472686,0.56799626,40.706253,-20.475,-4.2937503,0,
2022-04-15 10:34:35.696,0.025423266,-0.14878166,-0.06546668,40.4327914,-86.9104574,15.137688,-0.060853958,-0.050088882,-0.14441645,-4.8568316,8.096115,0.5805586,40.537502,-21.2625,-4.2937503,0,
2022-04-15 10:34:35.896,-0.21217875,-0.1819125,0.07465638,40.4327914,-86.9104574,15.137688,0.063492775,-0.27828598,-0.0470227,-4.6507497,8.152646,0.718445,40.537502,-21.2625,-4.2937503,0,
2022-04-15 10:34:36.098,-0.058878817,-0.03162625,0.25080955,40.4327914,-86.9104574,15.137688,0.2477479,-0.074744225,0.020165384,-4.6232324,8.599805,0.78664047,40.4625,-20.493752,-3.825,0,
2022-04-15 10:34:36.296,0.21632579,0.17000397,0.17225274,40.4327914,-86.9104574,15.137688,0.19454193,0.25661564,0.040878356,-5.1882377,8.403593,0.5694918,40.55625,-20.550001,-4.425,1,
2022-04-15 10:34:36.496,0.050611556,-0.03402337,-0.2022473,40.4327914,-86.9104574,15.137688,-0.1954236,0.03477192,-0.072274625,-5.1810594,8.359326,0.8240283,40.55625,-20.550001,-4.425,0,
2022-04-15 10:34:36.696,-0.051049262,0.106466115,-0.102309905,40.4329224,-86.9104643,14.691431,-0.108941555,0.018406868,0.11045951,-4.946563,8.503195,0.67118675,40.537502,-21.075,-4.65,0,
2022-04-15 10:34:36.896,0.09243428,0.028801363,0.047242004,40.4329224,-86.9104643,14.691431,0.053836346,0.09119511,-0.019761622,-5.072186,8.411669,0.6774679,40.575,-21.056252,-4.0125003,0,
2022-04-15 10:34:37.096,-0.037505392,0.018165173,-0.07293006,40.4329224,-86.9104643,14.691431,-0.07634783,-0.019913673,0.02880758,-5.0392847,8.416754,0.8001001,40.59375,-20.7,-4.0875,0,
2022-04-15 10:34:37.295,-0.011297745,0.05197157,0.017925391,40.4329224,-86.9104643,14.691431,0.014760971,0.0153512955,0.051927388,-4.8326044,8.437093,0.7402795,40.65,-20.34375,-4.0687504,0,
2022-04-15 10:34:37.495,0.0012428458,5.631549E-4,0.11735119,40.4329224,-86.9104643,14.691431,0.1168561,-0.0052375793,0.00950706,-4.9429736,8.367402,0.8021938,40.8375,-20.118752,-4.55625,0,
2022-04-15 10:34:37.697,-0.07549058,0.013385043,-0.015502759,40.4330514,-86.9104711,14.228798,-0.023498058,-0.056835175,0.04833144,-4.894519,8.358429,0.7603194,40.74375,-20.475,-4.8,0,
2022-04-15 10:34:37.895,-0.018099172,-0.02360736,0.040598832,40.4330514,-86.9104711,14.228798,0.038865566,-0.030715942,-0.0088967085,-4.712066,8.444571,0.68524456,40.425003,-21.13125,-4.8375,0,
2022-04-15 10:34:38.096,0.07300073,-0.028285278,0.11713275,40.4330514,-86.9104711,14.228798,0.12440634,0.0399189,-0.05271423,-4.8475595,8.420342,0.67148584,40.21875,-21.6375,-4.5,0,
2022-04-15 10:34:38.295,0.04214687,-0.045901895,0.023622738,40.4330514,-86.9104711,14.228798,0.028452873,0.010848045,-0.059280097,-4.9310093,8.311171,0.64277196,40.068752,-21.675001,-4.2562504,0,
2022-04-15 10:34:38.495,-0.037632905,-0.082663596,-0.06196921,40.4330514,-86.9104711,14.228798,-0.06112194,-0.07116127,-0.05735737,-4.8355956,8.378768,0.7399804,39.9,-21.7875,-4.0687504,0,
2022-04-15 10:34:38.694,0.012726998,0.005559985,0.049199644,40.4331781,-86.9104737,13.7731905,0.04966736,0.011958122,0.0019110441,-4.8358946,8.420342,0.6774679,39.80625,-21.618752,-3.5812502,0,
2022-04-15 10:34:38.894,0.03789921,0.020694826,-0.003337335,40.4331781,-86.9104737,13.7731905,-0.0021357536,0.043234825,-0.0013972521,-4.897809,8.418847,0.6726823,39.7125,-21.337502,-3.2625,0,
2022-04-15 10:34:39.094,0.022455895,-0.04684805,-0.031162037,40.4331781,-86.9104737,13.7731905,-0.027982712,-0.0041484833,-0.053570867,-4.9495535,8.283653,0.6008976,39.7125,-20.79375,-2.8875,0,
2022-04-15 10:34:39.294,-0.05827948,-0.105983526,-0.08850746,40.4331781,-86.9104737,13.7731905,-0.082220554,-0.10468197,-0.06887698,-4.99412,8.486146,0.81565344,39.881252,-20.118752,-2.90625,0,
2022-04-15 10:34:39.494,0.010230724,0.15983449,-0.08344251,40.4331781,-86.9104737,13.7731905,-0.08997679,0.08761215,0.12977934,-4.6902313,8.585747,0.6239285,39.881252,-20.118752,-2.90625,0,
2022-04-15 10:34:39.694,0.15470731,-0.04329747,0.14928603,40.4333021,-86.9104802,13.465958,0.16076946,0.10673618,-0.10419166,-4.8448677,8.476574,0.64995044,40.068752,-18.88125,-3.3937502,0,
2022-04-15 10:34:39.894,0.0064817867,-0.008493157,-0.004630102,40.4333021,-86.9104802,13.465958,-0.0038428307,0.0017385483,-0.01085335,-4.551747,8.151151,0.60628146,40.068752,-18.993752,-3.80625,0,
2022-04-15 10:34:40.094,-0.132887,-0.23282543,0.17442453,40.4333021,-86.9104802,13.465958,0.17667437,-0.23848057,-0.11917955,-4.8565326,8.379964,0.8428718,40.068752,-19.3875,-4.14375,0,
2022-04-15 10:34:40.294,-0.03698868,0.15284358,-0.080318876,40.4333021,-86.9104802,13.465958,-0.0885663,0.048096657,0.14499366,-4.866104,8.642576,0.73369926,40.0875,-19.893751,-4.2375,0,
2022-04-15 10:34:40.494,0.123770036,0.06931237,-0.1325494,40.4333021,-86.9104802,13.465958,-0.11876345,0.15339184,-0.007665336,-4.7769713,8.355139,0.4657031,40.18125,-20.1375,-4.1062503,1,
2022-04-15 10:34:40.695,0.022864558,-0.14571428,0.056657895,40.4334218,-86.9104825,13.048088,0.068353176,-0.052285194,-0.13251287,-4.7955155,8.49781,0.8769695,40.10625,-20.400002,-3.5812502,0,
2022-04-15 10:34:40.894,-0.014405172,0.15559901,0.02317682,40.4334218,-86.9104825,13.048088,0.015751362,0.06254482,0.14420736,-4.808975,8.649157,0.65264237,40.29375,-20.212502,-3.2812502,0,
2022-04-15 10:34:41.094,0.13700014,0.015501246,-0.0019588494,40.4334218,-86.9104825,13.048088,-0.006980419,0.12355995,-0.060806096,-5.029713,7.7946196,1.4721842,40.518753,-19.706251,-3.3000002,0,
2022-04-15 10:34:41.294,-0.038254794,-0.14300835,0.057138413,40.4334218,-86.9104825,13.048088,0.058366776,-0.115029335,-0.09241855,-6.122635,8.949157,0.7220342,40.93125,-19.275002,-3.61875,0,
2022-04-15 10:34:41.493,-0.05766469,0.13547474,-0.13557579,40.4334218,-86.9104825,13.048088,-0.15765715,0.015738487,0.122294486,-5.5513487,8.191829,1.5164514,41.2125,-18.975,-4.05,0,
2022-04-15 10:34:41.694,0.16751243,0.08115252,0.04446363,40.4335434,-86.9104863,12.845843,0.067456245,0.17887592,-0.008730233,-4.7581277,8.589635,0.31944183,41.30625,-18.993752,-4.55625,0,
2022-04-15 10:34:41.894,-0.05657807,-0.25022283,0.04781799,40.4335434,-86.9104863,12.845843,0.035782814,-0.18440342,-0.18114656,-5.1026945,8.369495,0.56350976,41.268753,-19.3875,-5.3250003,0,
2022-04-15 10:34:42.094,-0.089747354,0.19980751,-0.009032321,40.4335434,-86.9104863,12.845843,-0.015925884,0.039456367,0.21505529,-5.5872407,8.355737,0.6023931,41.100002,-20.19375,-6.0375004,0,
2022-04-15 10:34:42.293,0.055449218,-0.1557877,0.0063898545,40.4335434,-86.9104863,12.845843,0.01765871,-0.038090706,-0.16007036,-5.311468,8.48794,0.9870393,40.93125,-21.13125,-6.8250003,0,
2022-04-15 10:34:42.493,-0.11899887,-0.042926654,-0.026713772,40.4335434,-86.9104863,12.845843,-0.047178745,-0.118434906,0.021549702,-5.4239306,9.148957,0.85244304,40.4625,-22.425001,-6.8250003,0,
2022-04-15 10:34:42.694,0.07588038,0.37105653,-0.22555268,40.4336563,-86.9104891,12.463133,-0.16685581,0.29900837,0.27761114,-4.933402,8.554341,0.2548356,40.4625,-22.425001,-6.8250003,0,
2022-04-15 10:34:42.893,0.21635664,-0.08973681,0.04075931,40.4336563,-86.9104891,12.463133,0.069479465,0.1328888,-0.18449223,-5.035695,7.8012,1.4009976,40.143753,-23.25,-6.3,0,
2022-04-15 10:34:43.093,-0.222943,-0.2893213,0.051355086,40.4336563,-86.9104891,12.463133,0.06361008,-0.3463173,-0.109844565,-5.8821564,8.831908,1.3429717,39.506252,-24.018751,-5.4187503,1,
2022-04-15 10:34:43.292,-0.20396996,0.2659392,0.018338304,40.4336563,-86.9104891,12.463133,-0.04043436,-0.03624344,0.3312328,-5.0979085,8.119446,1.8239291,39.506252,-24.018751,-5.4187503,0,
2022-04-15 10:34:43.492,-0.12656432,0.67608106,0.29033357,40.4336563,-86.9104891,12.463133,0.096140385,0.26165676,0.692597,-4.859225,8.112865,2.097309,39.3375,-24.075,-4.8562503,1,
2022-04-15 10:34:43.692,-0.28703824,0.30304942,0.37076873,40.4337685,-86.9104928,11.843517,0.30529308,-0.058347702,0.4637791,-4.948357,8.303095,1.6474584,39.35625,-23.5125,-4.4437504,0,
2022-04-15 10:34:43.891,-0.4883312,0.5955994,0.14540799,40.4337685,-86.9104928,11.843517,0.0218153,-0.14059544,0.77078307,-4.592425,8.385647,1.7838492,39.393753,-23.025002,-4.2937503,0,
2022-04-15 10:34:44.091,-0.23882747,0.50484866,0.043936014,40.4337685,-86.9104928,11.843517,-0.08624983,0.04277134,0.5518811,-5.1026945,8.369495,2.1517458,39.600002,-22.5375,-4.21875,1,
2022-04-15 10:34:44.292,-0.22360563,0.43523267,0.22513825,40.4337685,-86.9104928,11.843517,0.0963645,0.05173397,0.52740085,-4.947759,8.312666,2.3198416,39.768753,-21.91875,-4.3500004,0,
2022-04-15 10:34:44.491,-0.30734962,0.29014003,0.21137795,40.4337685,-86.9104928,11.843517,0.12714863,-0.09100628,0.445956,-4.941179,8.332407,2.4699912,39.91875,-21.825,-4.6687503,0,
2022-04-15 10:34:44.691,-0.1982995,0.36323744,0.20021856,40.4338638,-86.9104982,10.220399,0.085511684,0.026532173,0.45092726,-4.8065825,8.383254,2.525026,39.99375,-21.768751,-5.025,0,
2022-04-15 10:34:44.891,-0.1413487,0.23374432,0.05418531,40.4338638,-86.9104982,10.220399,-0.014408588,-0.009213448,0.27795577,-4.8035913,8.372486,2.4960132,40.162502,-21.375,-5.08125,0,
2022-04-15 10:34:45.091,-0.14703277,0.20184289,0.114653334,40.4338638,-86.9104982,10.220399,0.050064564,-0.015955925,0.26971006,-4.8191447,8.277371,2.5860431,40.275,-21.225,-5.4,0,
2022-04-15 10:34:45.291,-0.05564817,0.10603564,6.1843544E-5,40.4338638,-86.9104982,10.220399,-0.025810242,0.0032339096,0.11689162,-4.968098,8.378768,2.1101704,40.237503,-21.375,-5.5875,0,
2022-04-15 10:34:45.49,0.14366437,-0.27243942,-0.025241274,40.4338638,-86.9104982,10.220399,0.032057762,-0.010994911,-0.30716646,-4.863412,8.339585,1.7886349,40.0875,-21.5625,-5.55,0,
2022-04-15 10:34:45.691,0.13801771,-0.20205322,-0.097389445,40.4339431,-86.910505,8.375989,-0.05324316,0.013268471,-0.25758147,-4.906782,8.36441,1.7599211,39.825,-21.69375,-5.45625,0,
2022-04-15 10:34:45.891,0.11107074,-0.20858979,-0.062889904,40.4339431,-86.910505,8.375989,-0.018191814,-0.011512756,-0.24359405,-4.8771706,8.289635,1.7730815,39.693752,-21.862501,-5.3250003,0,
2022-04-15 10:34:46.092,-0.04048701,-0.031840384,0.051831666,40.4339431,-86.910505,8.375989,0.058849335,-0.043172836,0.0035202503,-4.7988057,8.330313,2.036292,39.581253,-21.993752,-4.8562503,0,
2022-04-15 10:34:46.29,0.0017438345,0.048243992,-0.006145347,40.4339431,-86.910505,8.375989,-0.018826962,0.022678375,0.038723707,-4.869095,8.374879,2.0150557,39.600002,-22.3125,-3.7500002,0,
2022-04-15 10:34:46.49,0.004964074,0.04762055,0.0024198517,40.4339431,-86.910505,8.375989,-0.01096344,0.026293755,0.03855717,-4.781159,8.347063,1.9567307,39.73125,-22.29375,-2.98125,0,
2022-04-15 10:34:46.691,-2.0381808E-4,-0.0034792777,0.104470305,40.4340079,-86.9105045,6.8694983,0.10032177,0.021932602,0.019511461,-4.76082,8.429316,2.1224337,39.84375,-21.825,-2.625,0,
2022-04-15 10:34:46.89,-0.036735658,0.05545848,0.053863525,40.4340079,-86.9105045,6.8694983,0.03782606,0.0050992966,0.076613426,-4.8119664,8.333304,2.1684954,40.03125,-21.45,-2.6625001,0,
2022-04-15 10:34:47.09,-0.0658388,0.10056918,0.057011265,40.4340079,-86.9105045,6.8694983,0.029005527,2.9945374E-4,0.12983751,-4.8320065,8.346166,2.2501507,40.237503,-21.16875,-2.90625,0,
2022-04-15 10:34:47.289,-0.008177988,0.12754913,-0.009731941,40.4340079,-86.9105045,6.8694983,-0.049878597,0.045514107,0.10895395,-4.7898326,8.357532,2.405385,40.3875,-21.2625,-3.2625,0,
2022-04-15 10:34:47.489,-0.11050813,0.1034131,0.06253499,40.4340079,-86.9105045,6.8694983,0.0350461,-0.035298347,0.1560216,-4.8382874,8.277073,2.4532413,40.537502,-21.6375,-3.3000002,0,
2022-04-15 10:34:47.689,-0.11046267,0.16762714,0.052638665,40.4340608,-86.9105071,5.1221457,0.0013375282,-0.010961533,0.2072432,-4.9103713,8.413763,2.64377,40.55625,-21.9375,-3.6562502,0,
2022-04-15 10:34:47.889,-0.011009999,0.10017735,0.020011121,40.4340608,-86.9105071,5.1221457,-0.013011456,0.03834343,0.09443331,-4.768297,8.309675,2.4861426,40.425003,-21.993752,-4.275,0,
2022-04-15 10:34:48.089,-0.028291702,0.100406416,0.020769568,40.4340608,-86.9105071,5.1221457,-0.010666847,0.023797035,0.10311723,-4.842475,8.420044,2.521437,40.256252,-21.993752,-4.7250004,0,
2022-04-15 10:34:48.289,-0.041825682,-0.13937268,-0.002863275,40.4340608,-86.9105071,5.1221457,0.039718628,-0.10057354,-0.09741521,-4.7781677,8.204391,2.2268205,40.0875,-22.275002,-4.59375,0,
2022-04-15 10:34:48.488,0.036564544,-0.023328189,0.044822615,40.4340608,-86.9105071,5.1221457,0.047033787,0.031455994,-0.026240826,-4.8299127,8.505288,2.4619155,39.9,-22.275002,-4.2937503,0,
2022-04-15 10:34:48.689,0.05004466,0.13475394,0.066916555,40.4340608,-86.9105071,5.1221457,0.05020666,0.11519337,0.096699,-5.022535,8.248658,1.21017,39.881252,-22.2,-3.9562502,0,
2022-04-15 10:34:48.888,-0.01034721,-0.19678707,0.09450497,40.4340934,-86.9105085,3.1961765,0.0680027,-0.12267971,-0.16759694,-4.8454657,8.449057,-0.21415763,39.506252,-17.38125,-4.3875003,0,
2022-04-15 10:34:49.089,1.0225049,-1.566079,-0.23309313,40.4340934,-86.9105085,3.1961765,-0.2071271,0.09882069,-1.870771,-5.18405,8.410771,0.046660043,40.7625,-18.056252,-6.1125,0,
2022-04-15 10:34:49.289,0.84352654,-1.618242,-0.3093659,40.4340934,-86.9105085,3.1961765,-0.24318695,-0.03199768,-1.8346083,-4.8454657,8.422736,0.40438703,40.706253,-19.3125,-6.3,0,
2022-04-15 10:34:49.489,0.90510625,-1.5580089,-0.4429676,40.4340934,-86.9105085,3.1961765,-0.33400726,0.12139416,-1.8211348,-4.5475593,8.413164,0.485743,40.425003,-20.53125,-6.9187503,0,
2022-04-15 10:34:49.689,1.0621997,-1.5351789,0.10438086,40.4341217,-86.9105108,2.7785413,0.10848713,0.10959244,-1.8633728,-4.9232326,8.347362,-0.15553348,39.506252,-20.94375,-6.01875,0,
2022-04-15 10:34:49.888,0.42336595,-0.8311255,-0.07347988,40.4341217,-86.9105108,2.7785413,-0.1673832,0.008231163,-0.9205015,-4.855037,8.484949,-0.9296116,40.443752,-21.225,-4.59375,0,
2022-04-15 10:34:50.088,1.1388743,-1.7317495,0.02538377,40.4341217,-86.9105108,2.7785413,-0.168818,0.12611675,-2.0620937,-5.0847483,8.323434,-1.0624132,40.518753,-21.7875,-3.0937502,0,
2022-04-15 10:34:50.289,1.0604478,-1.8485287,0.21974233,40.4341217,-86.9105108,2.7785413,-0.08505297,0.010025024,-2.1406915,-4.9459643,8.46461,-1.4009976,40.537502,-21.7875,-2.34375,0,
2022-04-15 10:34:50.488,1.1323607,-1.8408225,0.23676215,40.4341217,-86.9105108,2.7785413,-0.19795895,0.044487,-2.164661,-5.2570314,8.2014,-1.9824536,40.03125,-21.993752,-1.7812501,0,
2022-04-15 10:34:50.688,0.75044227,-2.514565,0.14407963,40.4341516,-86.9105083,3.821225,-0.41391182,-0.24183083,-2.5840187,-4.28076,9.419347,-1.8664017,40.237503,-22.2,-2.34375,0,
2022-04-15 10:34:50.888,1.6444966,-1.7528341,0.2915127,40.4341516,-86.9105083,3.821225,0.05899048,0.47717476,-2.3728886,-5.015356,7.96451,-1.7623138,40.706253,-22.3125,-3.075,0,
2022-04-15 10:34:51.088,0.914742,-1.06018,0.28296244,40.4341516,-86.9105083,3.821225,0.1642518,0.11274147,-1.414607,-5.541777,8.135597,-1.1485549,39.35625,-22.462502,-1.9687501,0,
2022-04-15 10:34:51.288,0.013902485,-1.6220348,-0.1863522,40.4341516,-86.9105083,3.821225,-0.65144444,-0.4659319,-1.4228299,-4.1312084,9.336794,-2.056631,39.45,-21.993752,-1.6875001,0,
2022-04-15 10:34:51.49,1.0684822,-1.1352345,0.19153915,40.4341516,-86.9105083,3.821225,0.115419865,0.3149662,-1.5344619,-4.9268217,8.244471,-1.0803595,39.693752,-20.6625,-2.79375,0,
2022-04-15 10:34:51.688,0.8249649,-0.618109,0.50108236,40.4341963,-86.9105063,5.5453987,0.4706688,0.21245193,-1.0232519,-5.3850474,8.300702,-1.2646067,40.6875,-22.25625,-2.53125,0,
2022-04-15 10:34:51.887,0.22481102,-1.185254,-0.2633093,40.4341963,-86.9105063,5.5453987,-0.50193214,-0.21584606,-1.1073271,-4.5535417,8.693723,-1.3567305,40.706253,-22.425001,-2.4,0,
2022-04-15 10:34:52.087,0.68161553,-0.66648483,0.14977841,40.4341963,-86.9105063,5.5453987,0.106527805,0.18936157,-0.9402284,-5.2552366,8.17149,-1.1036894,40.7625,-22.462502,-2.4562502,0,
2022-04-15 10:34:52.287,0.4233805,-0.7143616,0.103634894,40.4341963,-86.9105063,5.5453987,-0.01562643,0.048731804,-0.8352752,-4.449454,8.435896,-1.5451652,40.575,-22.35,-2.4,0,
2022-04-15 10:34:52.486,0.29603672,-0.51251924,0.0014929175,40.4341963,-86.9105063,5.5453987,-0.06700945,-0.0072422028,-0.58802485,-5.276174,8.258827,-1.0582259,40.5,-22.275002,-2.4,0,
2022-04-15 10:34:52.686,0.11635408,-0.15952459,-0.0992744,40.4342537,-86.9105113,6.9251857,-0.1049037,0.055859566,-0.18632418,-3.775276,7.7180495,-0.654437,40.5,-22.275002,-2.4,0,
2022-04-15 10:34:52.887,0.03956764,-0.027752664,0.28661403,40.4342537,-86.9105113,6.9251857,0.28136492,-0.040175438,-0.060853302,-5.093123,8.667402,-0.59581286,40.331253,-21.618752,-2.8312502,0,
2022-04-15 10:34:53.087,0.031315867,-0.09736112,-0.1518925,40.4342537,-86.9105113,6.9251857,-0.16051197,0.01444912,-0.08693868,-5.666503,8.579764,-0.76630145,40.331253,-21.618752,-2.8312502,0,
2022-04-15 10:34:53.286,0.08338804,0.074189395,-0.06376352,40.4342537,-86.9105113,6.9251857,-0.029173374,0.121665,0.02949512,-4.8044887,8.488837,-0.9391829,40.03125,-20.79375,-3.35625,0,
2022-04-15 10:34:53.486,0.22999418,-0.02229105,0.020303546,40.4342537,-86.9105113,6.9251857,0.062419415,0.17395878,-0.1401735,-5.293821,8.680861,-1.1338989,39.84375,-20.475,-3.4875002,0,
2022-04-15 10:34:53.685,0.021990247,-0.120923355,-0.051398173,40.434333,-86.910516,8.451453,-0.075547695,-0.020366669,-0.10782182,-5.0368915,8.348259,-1.1904292,39.80625,-20.2875,-3.4687502,0,
2022-04-15 10:34:53.885,0.08444776,-0.19322036,0.13808101,40.434333,-86.910516,8.451453,0.101097584,-0.06964302,-0.22013867,-5.4628143,8.322835,-0.95772725,39.862503,-20.38125,-3.3937502,0,
2022-04-15 10:34:54.085,-0.070001915,0.1849805,-0.25672978,40.434333,-86.910516,8.451453,-0.2102046,0.091275215,0.22915304,-4.395615,8.449655,-1.2927225,39.99375,-20.5125,-3.3750002,0,
2022-04-15 10:34:54.285,-0.08041887,-0.09525487,0.22156142,40.434333,-86.910516,8.451453,0.17170715,-0.17672634,-0.06256688,-5.386244,8.860622,-1.0899308,40.10625,-20.8875,-3.2062502,0,
2022-04-15 10:34:54.485,0.041268863,0.06471987,-0.062503345,40.434333,-86.910516,8.451453,-0.041997433,0.08131981,0.037706137,-4.983651,8.05125,-0.68075806,40.21875,-21.0,-2.8125,0,
2022-04-15 10:34:54.685,-0.10187935,-0.029710133,-0.002861462,40.4344179,-86.91052,9.648852,-0.022726536,-0.09724522,0.036016047,-5.9318075,8.149954,-0.39541394,40.21875,-21.0,-2.8125,0,
2022-04-15 10:34:54.888,-0.13927262,-0.173925,-0.035484277,40.4344179,-86.91052,9.648852,-0.095733166,-0.19450378,-0.062524796,-5.6709895,8.366505,-0.8739785,40.6875,-21.431252,-2.4375,0,
2022-04-15 10:34:55.084,-0.07240583,0.053653322,-0.16966033,40.4344179,-86.91052,9.648852,-0.16599846,-0.0011949539,0.09669018,-4.6372905,8.240881,-0.8243274,40.893753,-21.7875,-2.1000001,0,
2022-04-15 10:34:55.285,-0.021383446,0.11255311,0.0758512,40.4344179,-86.91052,9.648852,0.09130335,0.0059366226,0.10250521,-3.690929,8.62792,-1.0779666,40.987503,-21.825,-2.0062501,0,
2022-04-15 10:34:55.485,-0.0120082125,0.065180466,-0.18547986,40.4344179,-86.91052,9.648852,-0.1677289,0.07114792,0.074836195,-5.67757,8.1020975,-0.7896315,40.93125,-21.6375,-2.1000001,0,
2022-04-15 10:34:55.685,-0.02678885,0.015937697,-0.10394825,40.4344179,-86.91052,9.648852,-0.101592064,0.011619568,0.036344588,-5.501099,8.1738825,-0.7848458,40.818752,-21.525002,-2.23125,0,
2022-04-15 10:34:55.885,-0.072933935,-0.059351146,-0.06338418,40.4345115,-86.9105241,10.430346,-0.080693245,-0.07952309,-0.0049141645,-5.6321063,8.295318,-0.5084748,40.818752,-21.525002,-2.23125,0,
2022-04-15 10:34:56.084,-0.016875092,0.10903078,-0.02457326,40.4345115,-86.9105241,10.430346,-0.0040020943,0.045942307,0.10319698,-5.0099726,8.011768,-0.8572287,40.893753,-21.16875,-2.4562502,0,
2022-04-15 10:34:56.284,0.042179313,0.051555865,0.07422844,40.4345115,-86.9105241,10.430346,0.08476496,0.04924202,0.01835996,-5.625526,8.997611,-0.42592242,40.893753,-21.150002,-2.5125,0,
2022-04-15 10:34:56.484,0.03747063,0.075661674,0.018668707,40.4345115,-86.9105241,10.430346,0.039147377,0.06503773,0.041410565,-5.5543394,8.548359,-0.81236327,40.8375,-20.79375,-2.6437502,0,
2022-04-15 10:34:56.685,0.031159744,0.062433228,0.09274397,40.4346111,-86.9105281,11.822272,0.10854578,0.030653954,0.027357459,-5.258228,8.800203,-1.1156535,40.8375,-20.79375,-2.6437502,0,
2022-04-15 10:34:56.884,0.073263384,0.12048938,0.040796526,40.4346111,-86.9105281,11.822272,0.072262764,0.10690594,0.06999135,-4.682754,9.149555,-0.910469,40.912502,-20.4375,-2.8312502,0,
2022-04-15 10:34:57.083,0.078365564,0.043374375,0.05198524,40.4346111,-86.9105281,11.822272,0.07262564,0.07301617,-0.0109142065,-5.547161,8.478369,-0.846461,40.96875,-20.4375,-2.90625,0,
2022-04-15 10:34:57.284,-0.1364916,-0.39198345,0.22807981,40.4346111,-86.9105281,11.822272,0.16231203,-0.37616968,-0.2375974,-6.2027946,8.376076,-0.17587246,40.96875,-20.4375,-2.90625,0,
2022-04-15 10:34:57.483,-0.06681019,0.66328835,-0.5650988,40.4346111,-86.9105281,11.822272,-0.31887102,0.39516163,0.71128076,-4.1371903,7.609774,-1.6857436,41.006252,-20.2875,-2.775,0,
2022-04-15 10:34:57.683,0.19494717,-0.14538442,0.3104082,40.434728,-86.9105379,12.871644,0.2815504,0.0024986267,-0.276075,-4.1371903,7.609774,-1.6857436,41.006252,-20.19375,-2.8875,1,
2022-04-15 10:34:57.883,-0.25026625,0.36637673,0.20243594,40.434728,-86.9105379,12.871644,0.17596531,-0.03914547,0.4531548,-4.8999023,8.503493,0.55692947,40.93125,-20.23125,-2.90625,0,
2022-04-15 10:34:58.083,-0.14707166,0.6797915,-0.37089628,40.434728,-86.9105379,12.871644,-0.31001186,0.31009007,0.65501714,-5.160122,7.710273,-0.2111666,40.78125,-20.23125,-2.8125,1,
2022-04-15 10:34:58.283,0.022439312,0.13451503,-0.032419927,40.434728,-86.9105379,12.871644,-4.4202805E-4,0.0904398,0.107094884,-4.8939204,8.315059,-0.8961121,40.65,-20.25,-2.7562501,1,
2022-04-15 10:34:58.483,-0.044958226,0.16211286,0.17703262,40.434728,-86.9105379,12.871644,0.19104242,0.0031833649,0.152102,-4.8508496,8.596215,-0.60717875,40.59375,-20.325,-2.7562501,0,
2022-04-15 10:34:58.687,0.092596725,0.2557278,0.0088857245,40.4348468,-86.9105463,13.545794,0.057507038,0.19912624,0.17632776,-4.8508496,8.596215,-0.60717875,40.48125,-20.493752,-2.41875,0,
2022-04-15 10:34:58.884,0.16253448,0.20135194,0.008702967,40.4348468,-86.9105463,13.545794,0.056824684,0.22914028,0.10630846,-4.289733,8.562716,-0.6969096,40.443752,-20.643751,-2.0625,0,
2022-04-15 10:34:59.082,0.041396637,0.057741966,0.089405306,40.4348468,-86.9105463,13.545794,0.09709978,0.052796364,0.028728068,-4.8358946,8.989237,-0.2853441,40.443752,-20.643751,-2.0062501,0,
2022-04-15 10:34:59.282,0.10961807,0.25922173,0.103533834,40.4348468,-86.9105463,13.545794,0.1459651,0.19161415,0.17863232,-4.258028,8.81815,-0.63888365,40.36875,-20.550001,-1.8375001,0,
2022-04-15 10:34:59.482,0.09664236,0.14352949,0.27217984,40.4348468,-86.9105463,13.545794,0.29525805,0.11056805,0.06796861,-4.4955153,8.659027,-0.5300102,40.36875,-20.550001,-1.8375001,0,
2022-04-15 10:34:59.683,-0.0077985823,0.15232961,0.113971494,40.4348468,-86.9105463,13.545794,0.12879705,0.04621315,0.132402,-4.4955153,8.659027,-0.5300102,40.143753,-20.212502,-1.63125,0,
2022-04-15 10:34:59.882,-0.0043810904,0.30919793,0.015051947,40.4349701,-86.9105506,14.075322,0.027105808,0.14032364,0.2746337,-4.7419763,8.868998,-0.06460621,40.0875,-20.19375,-1.6500001,0,
2022-04-15 10:35:00.082,0.0010120943,0.12961751,0.037405256,40.4349701,-86.9105506,14.075322,0.049963474,0.057756424,0.11121476,-4.72403,8.548957,-0.42771706,39.9375,-20.175001,-1.575,0,
2022-04-15 10:35:00.282,-0.15288919,-0.11329322,0.032506894,40.4349701,-86.9105506,14.075322,0.017114162,-0.19126606,-0.019787818,-5.1176496,8.65125,-0.03708875,39.84375,-20.1375,-1.8000001,0,
2022-04-15 10:35:00.481,-0.09074566,0.12467559,-0.082270235,40.4349701,-86.9105506,14.075322,-0.08018446,-0.005672455,0.15519485,-5.4370914,9.299107,-0.23569304,39.75,-20.04375,-2.15625,0,
2022-04-15 10:35:00.681,0.038872883,0.14074394,-0.0977074,40.4350992,-86.9105506,14.502134,-0.082464695,0.11511707,0.103991956,-5.4370914,9.299107,-0.23569304,39.7125,-20.1375,-2.04375,1,
2022-04-15 10:35:00.881,-0.116353214,-0.19449392,-0.18943661,40.4350992,-86.9105506,14.502134,-0.24694204,-0.14200878,-0.07813653,-5.1846485,7.963912,-1.0486546,39.787502,-20.41875,-2.0062501,0,
2022-04-15 10:35:01.082,-0.30990207,-0.31626007,-0.17384522,40.4350992,-86.9105506,14.502134,-0.24453688,-0.4015417,-0.072441936,-5.6985073,8.027322,-0.34037903,39.787502,-20.41875,-2.0062501,1,
2022-04-15 10:35:01.281,-0.22346243,-0.05139894,-0.138687,40.4350992,-86.9105506,14.502134,-0.16455269,-0.19549465,0.08071944,-5.410172,8.447861,-0.2542374,39.956253,-20.8125,-2.0625,1,
2022-04-15 10:35:01.482,-0.034898248,0.12203253,-0.09923158,40.4350992,-86.9105506,14.502134,-0.088514805,0.05459404,0.12305018,-5.7954164,8.355139,-0.30149564,39.99375,-20.775002,-1.9687501,1,
2022-04-15 10:35:01.682,-0.017492544,0.034476727,-0.29987475,40.4352312,-86.9105486,14.784404,-0.2946658,0.04864788,0.047169387,-5.7954164,8.355139,-0.30149564,40.10625,-20.681252,-1.9312501,0,
2022-04-15 10:35:01.882,-0.02635122,-0.106971174,-0.0625547,40.4352312,-86.9105486,14.784404,-0.08039951,-0.06347942,-0.07454255,-4.7084765,8.035098,-0.6334998,40.143753,-20.587502,-1.81875,0,
2022-04-15 10:35:02.082,-0.050502654,-0.098549694,0.43171483,40.4352312,-86.9105486,14.784404,0.41327906,-0.14788151,-0.07727733,-4.9609194,8.60459,-0.39541394,40.275,-20.475,-1.725,0,
2022-04-15 10:35:02.283,-0.04709982,0.2003277,-0.18696195,40.4352312,-86.9105486,14.784404,-0.1561327,0.11144924,0.20126101,-6.09093,8.458628,-0.6442675,40.3875,-20.325,-1.6875001,1,
2022-04-15 10:35:02.481,0.05529818,0.039328355,-0.42671928,40.4352312,-86.9105486,14.784404,-0.40749407,0.14076138,0.028787613,-5.2181478,8.033902,-0.5832505,40.4625,-20.15625,-1.6875001,0,
2022-04-15 10:35:02.7,-0.1729286,-0.3435629,0.20446652,40.435366,-86.9105485,15.140824,0.13164806,-0.36052942,-0.20599428,-5.2181478,8.033902,-0.5832505,40.66875,-20.0625,-1.725,0,
2022-04-15 10:35:02.88,-0.26702437,-0.085619986,0.148516,40.435366,-86.9105485,15.140824,0.11468458,-0.28713322,0.071356356,-5.5160546,8.229515,-0.40917268,41.100002,-20.268751,-1.40625,0,
2022-04-15 10:35:03.08,-0.05525482,-0.034353152,0.14685133,40.435366,-86.9105485,15.140824,0.12501287,-0.09127998,-0.04287538,-2.8660033,8.939586,-1.7766708,41.23125,-20.2875,-1.1625,0,
2022-04-15 10:35:03.28,-0.23692593,0.0700329,-0.20744626,40.435366,-86.9105485,15.140824,-0.21614885,-0.070427895,0.22889307,-6.469594,7.2466636,-0.93260264,41.23125,-20.2875,-1.1625,0,
2022-04-15 10:35:03.48,-1.853332E-5,0.04768467,-0.099112704,40.435366,-86.9105485,15.140824,-0.089074135,0.04399681,0.047193587,-5.750551,8.20798,-0.8386843,41.4,-20.025002,-0.73125005,1,
2022-04-15 10:35:03.682,-0.016407907,-0.35875297,-0.026514985,40.4355019,-86.9105549,15.130834,-0.08857393,-0.20677567,-0.28120178,-5.750551,8.20798,-0.8386843,41.4,-20.025002,-0.73125005,0,
2022-04-15 10:35:03.88,-0.14265102,-0.39403835,0.9733465,40.4355019,-86.9105549,15.130834,0.93906164,-0.3938141,-0.29341537,-5.110471,8.286943,-0.33080772,41.41875,-19.96875,-0.39375,1,
2022-04-15 10:35:04.08,0.0824303,0.660097,0.36153978,40.4355019,-86.9105549,15.130834,0.4088049,0.3943472,0.50060225,-5.532804,8.736196,-0.36191443,41.41875,-19.96875,-0.39375,1,
2022-04-15 10:35:04.279,0.44777304,0.109419376,-0.02767048,40.4355019,-86.9105549,15.130834,0.008775234,0.43563557,-0.15291691,-5.321039,8.076973,-0.6095716,41.381252,-19.875,-0.0375,1,
2022-04-15 10:35:04.48,-0.060493875,-0.037642993,0.46354568,40.4355019,-86.9105549,15.130834,0.46166182,-0.08224678,-0.0074127316,-5.2402816,8.608778,-0.14596218,41.381252,-19.875,-0.0375,0,
2022-04-15 10:35:04.684,0.15261601,0.41148585,0.08231485,40.4356433,-86.9105632,15.424085,0.095927715,0.34174824,0.27091324,-5.2402816,8.608778,-0.14596218,41.006252,-19.59375,-0.15,0,
2022-04-15 10:35:04.88,0.16829607,0.0024545267,0.14135358,40.4356433,-86.9105632,15.424085,0.1513629,0.12482834,-0.09908372,-5.1361938,8.121839,-0.78424764,41.175003,-19.575,-0.075,0,
2022-04-15 10:35:05.079,-0.047737055,0.1051459,0.22629848,40.4356433,-86.9105632,15.424085,0.23415184,-0.0118665695,0.097865164,-4.995017,8.13141,-0.6939186,41.287502,-19.63125,-0.01875,0,
2022-04-15 10:35:05.279,0.041423287,0.032535292,-0.014868947,40.4356433,-86.9105632,15.424085,-0.008685589,0.053928375,0.003436625,-5.6817575,7.9908314,-0.61435723,41.287502,-19.63125,-0.01875,0,
2022-04-15 10:35:05.48,-0.10152838,-0.011929024,-0.003201312,40.4356433,-86.9105632,15.424085,-0.0046420097,-0.091700554,0.045055747,-5.5334024,8.578867,-0.17647067,41.325,-19.78125,0.09375,0,
2022-04-15 10:35:05.682,0.06293636,0.2282417,-0.27930963,40.4357821,-86.9105669,15.722211,-0.27490425,0.17914295,0.16249487,-5.5334024,8.578867,-0.17647067,41.456253,-19.59375,0.45000002,0,
2022-04-15 10:35:05.879,-0.0011817217,-0.2521728,0.12918003,40.4357821,-86.9105669,15.722211,0.0984869,-0.15644455,-0.21472174,-5.411967,7.7270226,-0.6879365,41.41875,-19.59375,0.58125,0,
2022-04-15 10:35:06.079,-0.14771906,0.14283757,0.2703903,40.4357821,-86.9105669,15.722211,0.27866268,-0.07544899,0.17885455,-5.2953167,8.487342,-0.74117684,41.41875,-19.59375,0.58125,0,
2022-04-15 10:35:06.279,0.07449891,0.020045344,-0.029332088,40.4357821,-86.9105669,15.722211,-0.026875496,0.07522011,-0.02078265,-4.976473,8.027322,-0.45403808,41.475002,-19.48125,0.675,0,
2022-04-15 10:35:06.479,-0.020607088,0.026189052,-0.2112819,40.4357821,-86.9105669,15.722211,-0.20891237,0.009959221,0.044799447,-5.374878,7.8574314,-0.52342993,41.5875,-19.1625,0.7875,0,
2022-04-15 10:35:06.686,-0.04714451,-0.2101682,0.34393063,40.4359243,-86.9105705,15.808359,0.32560587,-0.17683077,-0.16550905,-5.374878,7.8574314,-0.52342993,41.5875,-19.1625,0.7875,0,
2022-04-15 10:35:06.879,-0.008116968,0.18847835,0.1420851,40.4359243,-86.9105705,15.808359,0.15770578,0.08373356,0.15458244,-5.424529,8.546564,-0.613759,41.49375,-18.9375,0.63750005,0,
2022-04-15 10:35:07.079,0.14575085,0.053007826,-0.21141937,40.4359243,-86.9105705,15.808359,-0.19382143,0.17611599,-0.012950003,-5.1218367,8.091928,-0.9128618,41.5125,-18.91875,0.6,0,
2022-04-15 10:35:07.279,-0.03819184,-0.16385032,0.11829362,40.4359243,-86.9105705,15.808359,0.101635456,-0.12582016,-0.12703723,-5.0566325,8.243274,-0.62153566,41.5125,-18.91875,0.6,0,
2022-04-15 10:35:07.479,-0.040831156,0.042487115,0.15072939,40.4359243,-86.9105705,15.808359,0.15274763,-0.024271011,0.047652543,-5.078168,8.484949,-0.6346962,41.5875,-18.806252,0.52500004,0,
2022-04-15 10:35:07.683,0.045315493,0.028543305,-0.024699051,40.4360654,-86.9105827,15.927462,-0.020653725,0.055171013,0.0028000474,-5.078168,8.484949,-0.6346962,41.5875,-18.806252,0.52500004,0,
2022-04-15 10:35:07.878,0.054473653,0.05720494,-0.080847695,40.4360654,-86.9105827,15.927462,-0.07404852,0.08117485,0.026525319,-4.962714,8.481958,-0.57188463,41.5125,-18.862501,0.35625002,0,
2022-04-15 10:35:08.077,0.02104837,-0.09770553,0.17782868,40.4360654,-86.9105827,15.927462,0.16986132,-0.04049492,-0.10545015,-4.7228336,8.407781,-0.5491528,41.5125,-18.862501,0.35625002,0,
2022-04-15 10:35:08.277,-0.008805469,0.18914738,-0.13496503,40.4360654,-86.9105827,15.927462,-0.10090208,0.10712433,0.18003607,-5.0626144,8.316256,-1.082154,41.381252,-18.88125,0.3,0,
2022-04-15 10:35:08.477,0.10013473,-0.07432046,-0.2850489,40.4360654,-86.9105827,15.927462,-0.28688288,0.08060074,-0.08947122,-4.389633,8.056036,-0.7531409,41.4375,-19.25625,0.35625002,0,
2022-04-15 10:35:08.676,-0.13893707,-0.21055613,0.4265669,40.4360654,-86.9105827,15.927462,0.39192104,-0.26193714,-0.15291673,-4.389633,8.056036,-0.7531409,41.456253,-19.368752,0.375,0,
2022-04-15 10:35:08.876,-0.021037359,0.061413094,0.1844976,40.4362094,-86.9105864,16.18293,0.18921518,-0.0066814423,0.049055755,-4.752146,8.046464,-0.7280163,41.34375,-19.368752,0.22500001,0,
2022-04-15 10:35:09.076,-0.049395528,-0.048528295,-0.065962344,40.4362094,-86.9105864,16.18293,-0.07051134,-0.06310463,-0.013852835,-4.959125,8.465208,-0.45164528,41.325,-19.425001,0.20625001,0,
2022-04-15 10:35:09.276,0.12825504,0.11827159,-0.03000911,40.4362094,-86.9105864,16.18293,-0.0116992,0.17341805,0.03357649,-5.298906,8.400602,-0.6771688,41.325,-19.59375,0.3375,0,
2022-04-15 10:35:09.476,0.037585616,-8.095363E-4,-0.010982518,40.4362094,-86.9105864,16.18293,-0.008991718,0.032876015,-0.019294202,-4.9698925,8.136793,-0.79920274,41.456253,-19.931252,0.39375,0,
2022-04-15 10:35:09.679,0.032182395,0.03934269,-0.30990237,40.4363548,-86.9105905,16.336802,-0.30018425,0.08182526,0.042627156,-4.9698925,8.136793,-0.79920274,41.4,-19.743752,0.41250002,0,
2022-04-15 10:35:09.877,0.01272271,-0.06892405,0.01155461,40.4363548,-86.9105905,16.336802,0.006298065,-0.025759697,-0.065898955,-5.043472,8.190632,-0.53180486,41.41875,-19.85625,0.54375005,0,
2022-04-15 10:35:10.076,-0.097608134,-0.12933697,0.122182444,40.4363548,-86.9105905,16.336802,0.10781717,-0.16022968,-0.062336564,-5.2480583,8.087142,-0.5587241,41.362503,-19.5375,0.5625,0,
2022-04-15 10:35:10.276,-0.08141331,-0.043232042,0.012674638,40.4363548,-86.9105905,16.336802,0.006295681,-0.092642784,0.005954981,-5.111667,8.136195,-0.5599205,41.325,-19.425001,0.43125,0,
2022-04-15 10:35:10.475,-0.0011364855,0.071365915,-0.06421405,40.4363548,-86.9105905,16.336802,-0.054741383,0.040265083,0.067822814,-4.8993044,8.563912,-0.8554341,41.25,-19.48125,0.54375005,0,
2022-04-15 10:35:10.676,0.11203228,0.028809093,-0.1855293,40.4365023,-86.9105911,16.644411,-0.17693758,0.12761497,-0.014485419,-4.8993044,8.563912,-0.8554341,41.25,-19.743752,0.95625,0,
2022-04-15 10:35:10.877,-0.19428396,-0.24520925,0.18828928,40.4365023,-86.9105911,16.644411,0.17924356,-0.28715897,-0.13688737,-4.1665025,8.109276,-0.37208393,41.23125,-19.931252,1.1437501,1,
2022-04-15 10:35:11.075,0.033073753,0.28350282,0.2130753,40.4365023,-86.9105911,16.644411,0.22936916,0.17242146,0.21101993,-5.6685967,9.0029955,-0.5485546,41.2125,-19.95,1.29375,0,
2022-04-15 10:35:11.275,0.4066958,0.2626845,-0.673764,40.4365023,-86.9105911,16.644411,-0.6311383,0.53383446,0.07104665,-4.935795,8.213962,-0.7908279,41.11875,-19.987501,1.2375001,0,
2022-04-15 10:35:11.476,0.08624165,-0.08844154,-0.35743645,40.4365023,-86.9105911,16.644411,-0.36198378,0.04084015,-0.10158837,-5.267201,8.129017,-0.52522457,41.15625,-19.85625,1.03125,0,
2022-04-15 10:35:11.675,-0.03901243,-0.006198681,0.028924966,40.4366555,-86.9105972,16.805523,0.028402328,-0.037179947,0.014422417,-5.267201,8.129017,-0.52522457,41.1375,-20.0625,1.25625,0,
2022-04-15 10:35:11.875,-0.030709416,-0.10860428,-0.009325207,40.4366555,-86.9105972,16.805523,-0.013990879,-0.08471203,-0.07384473,-5.4341,8.371888,-0.47856453,41.1375,-20.15625,1.575,0,
2022-04-15 10:35:12.074,-0.0025940388,0.19921409,-0.18173288,40.4366555,-86.9105972,16.805523,-0.16446733,0.12019348,0.17670268,-5.8618174,8.385647,-0.695115,41.23125,-20.1,1.63125,0,
2022-04-15 10:35:12.274,0.20806856,0.045307834,-0.09534748,40.4366555,-86.9105972,16.805523,-0.08685732,0.21088123,-0.049207628,-4.421338,8.401798,-0.74117684,41.268753,-19.743752,1.2,0,
2022-04-15 10:35:12.474,-0.09025447,-0.017624464,0.07553221,40.4366555,-86.9105972,16.805523,0.072256565,-0.09098244,0.025744677,-5.30429,8.966505,-0.6873383,41.287502,-19.331251,0.99375004,0,
2022-04-15 10:35:12.677,0.08811471,0.23030752,-0.46102893,40.4368083,-86.9106022,17.024706,-0.43674183,0.22132206,0.18337551,-5.30429,8.966505,-0.6873383,41.30625,-19.125,0.82500005,0,
2022-04-15 10:35:12.874,0.08308512,-0.3043397,0.3136174,40.4368083,-86.9106022,17.024706,0.2319498,-0.19298649,-0.32685953,-5.809175,6.9242306,-1.2514462,41.325,-19.21875,0.91875005,0,
2022-04-15 10:35:13.074,-0.61225796,0.022714794,0.0441041,40.4368083,-86.9106022,17.024706,0.024562836,-0.48382282,0.37766793,-5.7876396,7.8083787,-0.8327023,41.362503,-19.425001,1.0875001,1,
2022-04-15 10:35:13.274,-0.10708617,-0.5524516,0.4735244,40.4368083,-86.9106022,17.024706,0.47898102,-0.36008596,-0.4263928,-5.023133,8.590233,-0.07477571,41.5125,-19.25625,0.90000004,0,
2022-04-15 10:35:13.474,-0.16428255,0.58182675,0.38373083,40.4368083,-86.9106022,17.024706,0.44865274,0.18234444,0.52746725,-6.710671,8.464012,-0.81655073,41.625,-19.087502,0.675,0,
2022-04-15 10:35:13.674,0.25054356,0.7290729,-1.8890585,40.4369592,-86.9106121,17.157198,-1.7587228,0.8715868,0.5568588,-6.710671,8.464012,-0.81655073,41.71875,-18.9375,0.4875,1,
2022-04-15 10:35:13.873,0.011398584,-0.7579758,-0.5376837,40.4369592,-86.9106121,17.157198,-0.6907239,-0.23789692,-0.57451415,-3.9176488,6.914061,-1.2364911,41.775,-18.9375,0.52500004,1,
2022-04-15 10:35:14.074,-0.84263676,-0.641567,1.5537186,40.4369592,-86.9106121,17.157198,1.5530214,-1.051919,-0.13144356,-5.0979085,8.444271,-0.11246266,41.737503,-19.143751,0.45000002,0,
2022-04-15 10:35:14.274,-0.07512051,0.5625007,0.08751336,40.4369592,-86.9106121,17.157198,0.1615181,0.2197113,0.5053193,-5.5890355,8.81815,-0.94636136,41.737503,-19.2,0.43125,1,
2022-04-15 10:35:14.473,0.31886083,0.18011564,-0.4891599,40.4369592,-86.9106121,17.157198,-0.46715927,0.3933239,0.021208525,-4.786842,8.250452,-0.49651068,41.850002,-18.993752,0.43125,0,
2022-04-15 10:35:14.68,-0.14807706,-0.0035815686,0.32695743,40.4371146,-86.9106216,17.218449,0.32163763,-0.14986992,0.054120958,-4.786842,8.250452,-0.49651068,41.8125,-18.862501,0.3,1,
2022-04-15 10:35:14.873,-0.05854715,0.1505319,0.34623933,40.4371146,-86.9106216,17.218449,0.35400248,0.005926132,0.14358419,-5.0530434,8.665009,-0.45762733,41.775,-18.806252,0.24375,0,
2022-04-15 10:35:15.073,0.05314198,0.1231913,0.078668036,40.4371146,-86.9106216,17.218449,0.090625286,0.10335827,0.072752655,-5.13739,8.3994055,-0.5623133,41.756252,-18.862501,0.3,0,
2022-04-15 10:35:15.273,-0.03175295,0.015093836,0.11648292,40.4371146,-86.9106216,17.218449,0.11617279,-0.0300951,0.020062685,-4.633701,8.392227,-0.695115,41.737503,-19.10625,0.43125,0,
2022-04-15 10:35:15.473,-0.008252969,-0.016470574,0.28662157,40.4371146,-86.9106216,17.218449,0.2843423,-0.032701492,-0.023903728,-4.935795,8.208578,-0.47018966,41.643753,-19.10625,0.3,0,
2022-04-15 10:35:15.69,-0.017206965,0.07344483,0.22035463,40.4372712,-86.9106324,17.288334,0.2246108,0.009233475,0.060918927,-4.935795,8.208578,-0.47018966,41.737503,-18.993752,0.24375,0,
2022-04-15 10:35:15.872,-0.04690937,0.03586188,-0.10780642,40.4372712,-86.9106324,17.288334,-0.10611868,-0.014823914,0.060231745,-5.221139,8.239086,-0.4426722,41.756252,-19.050001,0.41250002,0,
2022-04-15 10:35:16.072,-0.031819783,0.012517316,-0.27038625,40.4372712,-86.9106324,17.288334,-0.26991844,-0.014199257,0.03493315,-4.892724,8.592028,-0.3044867,41.643753,-19.237501,0.43125,0,
2022-04-15 10:35:16.273,0.14325559,0.1562486,0.11084294,40.4372712,-86.9106324,17.288334,0.13685513,0.18789005,0.056479633,-4.56072,8.166105,-0.8321041,41.662502,-19.237501,0.43125,0,
2022-04-15 10:35:16.474,0.014279008,-0.22137523,0.21975325,40.4372712,-86.9106324,17.288334,0.21089506,-0.11741257,-0.19809073,-5.372485,7.9950185,-0.2835495,41.68125,-19.3125,0.50625,0,
2022-04-15 10:35:16.672,-0.26216078,-0.061673902,-0.17267597,40.4372712,-86.9106324,17.288334,-0.1777811,-0.2464323,0.10006973,-5.372485,7.9950185,-0.2835495,41.625,-19.3125,0.39375,0,
2022-04-15 10:35:16.872,0.09749854,-0.07866554,0.19882596,40.4374299,-86.9106416,17.485836,0.19223833,0.028727531,-0.13208008,-4.3357944,8.039286,-0.7830512,41.456253,-19.237501,0.28125,0,
2022-04-15 10:35:17.071,-0.10033712,-0.19510153,0.40951943,40.4374299,-86.9106416,17.485836,0.4070239,-0.19146729,-0.11623305,-5.132006,8.185846,-0.09990034,41.41875,-19.331251,0.22500001,1,
2022-04-15 10:35:17.272,-0.0075324588,0.049930997,-0.313041,40.4374299,-86.9106416,17.485836,-0.30729246,0.045659065,0.06349093,-5.1870413,8.213962,-0.5383851,41.362503,-19.5,0.112500004,0,
2022-04-15 10:35:17.473,0.015528433,-0.07234903,-0.24930997,40.4374299,-86.9106416,17.485836,-0.25372648,-0.0030517578,-0.05696082,-4.903492,8.514859,-0.5282156,41.30625,-19.575,-0.0,0,
2022-04-15 10:35:17.675,0.019849448,0.017734319,-0.08325624,40.4374299,-86.9106416,17.485836,-0.080298424,0.03307247,0.0099238455,-4.903492,8.514859,-0.5282156,41.287502,-19.59375,-0.22500001,0,
2022-04-15 10:35:17.872,0.06691472,-0.078090936,0.13518234,40.4375878,-86.9106458,17.499683,0.13251257,0.015393257,-0.10513565,-4.290331,8.239086,-0.34636107,41.1375,-19.6875,-0.28125,0,
2022-04-15 10:35:18.071,0.0037205266,-0.01543004,0.12547337,40.4375878,-86.9106458,17.499683,0.12305403,-0.017968178,-0.023029178,-4.82752,8.362915,-0.6041877,40.987503,-19.612501,-0.46875003,0,
2022-04-15 10:35:18.271,0.0026746616,-0.070677094,-0.111031905,40.4375878,-86.9106458,17.499683,-0.11716032,-0.02171421,-0.055968255,-4.8903313,8.198408,-0.5174479,40.893753,-19.66875,-0.6,0,
2022-04-15 10:35:18.472,-0.0013499781,-0.027462065,0.04722208,40.4375878,-86.9106458,17.499683,0.04355383,-0.021359444,-0.025154531,-5.0644093,8.003992,-0.54376894,40.95,-19.66875,-0.7875,0,
2022-04-15 10:35:18.671,-0.01688014,-0.14490728,-0.061861083,40.4375878,-86.9106458,17.499683,-0.07959986,-0.08210087,-0.10969576,-5.0644093,8.003992,-0.54376894,40.8375,-19.5375,-0.95625,0,
2022-04-15 10:35:18.871,-0.21744663,-0.20894125,-0.2539534,40.4377489,-86.91065,17.78428,-0.29073,-0.26358557,-0.037822485,-5.3096733,7.789834,-0.45702913,40.8375,-19.25625,-0.95625,0,
2022-04-15 10:35:19.07,-0.12547246,-0.16043411,-0.10418707,40.4377489,-86.91065,17.78428,-0.1361785,-0.17316198,-0.06170687,-4.786842,7.580462,-0.58683974,40.78125,-19.237501,-1.21875,0,
2022-04-15 10:35:19.27,-0.086624324,-0.2348005,0.23123744,40.4377489,-86.91065,17.78428,0.20237732,-0.21548557,-0.16945556,-4.4614177,7.749156,-0.360718,40.74375,-19.10625,-1.3312501,0,
2022-04-15 10:35:19.47,0.05634027,-0.14407402,0.3798446,40.4377489,-86.91065,17.78428,0.3687749,-0.08387947,-0.1586909,-6.038886,8.12782,-0.253041,40.706253,-18.956251,-1.5,0,
2022-04-15 10:35:19.67,0.18666196,-0.13432729,-0.04802329,40.4377489,-86.91065,17.78428,-0.043574333,0.07630634,-0.21787925,-6.038886,8.12782,-0.253041,40.706253,-18.91875,-1.9312501,0,
2022-04-15 10:35:19.87,0.46480572,0.21118262,-0.26487315,40.4379103,-86.9106572,18.344713,-0.2270236,0.5215583,-0.08507356,-5.7547383,8.656634,0.14237295,40.612503,-19.050001,-2.1937501,0,
2022-04-15 10:35:20.07,0.11121612,0.036468737,-0.12827602,40.4379103,-86.9106572,18.344713,-0.11941004,0.124676704,-0.018726781,-3.8973098,7.7330046,0.083748795,40.55625,-18.993752,-2.34375,0,
2022-04-15 10:35:20.27,3.4508854E-4,0.22772306,0.08000757,40.4379103,-86.9106572,18.344713,0.08540487,0.10567379,0.19949481,-5.0015974,8.898309,0.14955142,40.575,-18.88125,-2.53125,0,
2022-04-15 10:35:20.47,0.24051732,0.31094688,-0.2906662,40.4379103,-86.9106572,18.344713,-0.22722912,0.40550327,0.1515169,-5.139185,8.643474,-0.24945176,40.518753,-18.993752,-3.0,0,
2022-04-15 10:35:20.679,0.23057666,0.043473516,-0.3869461,40.4380779,-86.9106632,18.894663,-0.3492751,0.2788725,-0.07085106,-5.139185,8.643474,-0.24945176,40.4625,-18.862501,-3.0937502,0,
2022-04-15 10:35:20.87,-0.3334256,-0.39090595,0.25907812,40.4380779,-86.9106632,18.894663,0.23560524,-0.4798584,-0.2129028,-3.8500516,8.700303,0.3487539,40.36875,-18.7875,-3.1875002,0,
2022-04-15 10:35:21.069,0.13012496,0.5489265,0.49110395,40.4380779,-86.9106632,18.894663,0.54154253,0.3124056,0.41057315,-4.9232326,8.7673025,-0.08853444,40.29375,-18.862501,-3.1875002,0,
2022-04-15 10:35:21.269,0.42138195,0.22899841,-0.091135725,40.4380779,-86.9106632,18.894663,-0.028553009,0.4858799,-0.037605986,-5.493921,8.435298,-0.0526421,40.21875,-18.806252,-2.86875,0,
2022-04-15 10:35:21.469,-0.1101542,0.026928045,0.046038903,40.4380779,-86.9106632,18.894663,0.037117004,-0.087530136,0.07706782,-5.0512486,8.991031,-0.08075777,40.237503,-18.4125,-2.6437502,0,
2022-04-15 10:35:21.68,0.23188794,0.4476428,-0.08399546,40.4382497,-86.9106704,19.420193,-0.036091328,0.42777538,0.27733916,-5.0512486,8.991031,-0.08075777,40.275,-18.225,-2.5500002,0,
2022-04-15 10:35:21.869,0.027112752,0.0829884,0.1312693,40.4382497,-86.9106704,19.420193,0.13496447,0.05344391,0.061499193,-4.557729,8.479566,0.09092726,40.350002,-18.206251,-2.30625,0,
2022-04-15 10:35:22.069,-0.09662533,0.29765964,0.03533455,40.4382497,-86.9106704,19.420193,0.03397417,0.08123875,0.3023777,-6.2291155,9.466604,0.2117648,40.21875,-18.09375,-1.9312501,0,
2022-04-15 10:35:22.271,0.5078167,0.5781201,-0.94341207,40.4382497,-86.9106704,19.420193,-0.8446593,0.82528305,0.2959485,-4.657031,8.49452,-0.34217364,40.256252,-18.13125,-1.81875,1,
2022-04-15 10:35:22.469,0.2943171,-0.01761312,0.024216048,40.4382497,-86.9106704,19.420193,0.040258884,0.24885082,-0.15482795,-4.5242295,8.42812,-0.043070808,40.331253,-18.13125,-1.6500001,0,
2022-04-15 10:35:22.676,-0.17729574,0.0040000677,0.7645882,40.4384293,-86.9106778,19.753113,0.75439024,-0.19973755,0.08393567,-4.5242295,8.42812,-0.043070808,40.3875,-18.0,-1.4625001,0,
2022-04-15 10:35:22.868,0.056855604,0.4291747,-0.12597574,40.4384293,-86.9106778,19.753113,-0.10268974,0.26973915,0.34639427,-5.1792645,9.0951185,-0.13399807,40.425003,-18.018751,-1.40625,0,
2022-04-15 10:35:23.069,0.32202774,0.32796204,-0.18364282,40.4384293,-86.9106778,19.753113,-0.14576387,0.45883656,0.11492412,-5.109873,8.34796,-0.17826529,40.425003,-18.225,-1.3125,0,
2022-04-15 10:35:23.268,-0.072897375,0.0641007,0.1685824,40.4384293,-86.9106778,19.753113,0.16770887,-0.040955544,0.08966231,-5.108078,8.492127,-0.16630118,40.425003,-18.375,-1.10625,0,
2022-04-15 10:35:23.468,-0.10451232,0.17747808,0.10732493,40.4384293,-86.9106778,19.753113,0.1110034,-0.006108284,0.20391388,-5.1702914,8.662616,-0.18903299,40.331253,-18.50625,-0.975,0,
2022-04-15 10:35:23.668,0.036143437,0.18200302,0.12424547,40.4384293,-86.9106778,19.753113,0.13525295,0.11506462,0.13540739,-5.1702914,8.662616,-0.18903299,40.40625,-18.675001,-1.0875001,0,
2022-04-15 10:35:23.868,-0.04524061,0.122150674,-0.004111936,40.438615,-86.9106815,20.023094,-0.003314972,0.022813797,0.12826905,-5.1032925,8.7164545,0.0035892338,40.3875,-18.6,-0.95625,0,
2022-04-15 10:35:24.068,-0.002757073,0.0024751746,-0.029320816,40.438615,-86.9106815,20.023094,-0.029278278,3.6525726E-4,0.004010871,-4.5505505,8.362317,-0.16869399,40.443752,-18.69375,-0.82500005,0,
2022-04-15 10:35:24.267,-0.17884776,-0.10576955,0.13594767,40.438615,-86.9106815,20.023094,0.13527536,-0.20785332,-0.012372032,-4.343571,8.723035,0.18544376,40.48125,-18.712502,-0.7875,0,
2022-04-15 10:35:24.467,-0.053458042,0.17688532,0.18463737,40.438615,-86.9106815,20.023094,0.19235754,0.034163475,0.17340292,-5.5298133,8.897711,-0.28295127,40.4625,-18.69375,-0.76875,0,
2022-04-15 10:35:24.667,0.30649927,0.22419013,-0.43565273,40.438615,-86.9106815,20.023094,-0.40601683,0.40928745,0.040378638,-5.5298133,8.897711,-0.28295127,40.5,-18.6375,-0.7875,0,
2022-04-15 10:35:24.868,-0.20822811,-0.08971061,-0.08436749,40.4387974,-86.9106791,20.010487,-0.09069204,-0.22294903,0.024361819,-4.8598228,8.590832,0.009571291,40.537502,-18.65625,-0.76875,0,
2022-04-15 10:35:25.067,-0.17241615,0.36113185,0.24158214,40.4387974,-86.9106791,20.010487,0.2309103,0.041687965,0.40428704,-5.343173,8.857632,0.26261228,40.48125,-18.768751,-0.63750005,0,
2022-04-15 10:35:25.267,-0.028028011,0.5115104,-0.18891898,40.4387974,-86.9106791,20.010487,-0.21220207,0.21740723,0.4536774,-4.5475593,8.146365,0.31405798,40.537502,-18.84375,-0.28125,0,
2022-04-15 10:35:25.467,-0.27593344,0.28078538,-0.098296724,40.4387974,-86.9106791,20.010487,-0.11380863,-0.09678459,0.37725624,-5.2259245,8.455039,0.60358953,40.443752,-18.900002,-0.24375,0,
2022-04-15 10:35:25.674,-0.23745319,0.2143603,0.1508897,40.4389758,-86.9106791,19.774454,0.13884592,-0.07820034,0.31576663,-5.2259245,8.455039,0.60358953,40.425003,-18.9375,-0.26250002,1,
2022-04-15 10:35:25.867,-0.11775969,0.27918705,-0.034504525,40.4389758,-86.9106791,19.774454,-0.054902554,0.04181385,0.29705322,-5.368896,8.734999,0.58683974,40.3875,-18.9375,-0.26250002,0,
2022-04-15 10:35:26.067,-0.026680537,0.29969215,-0.097151525,40.4389758,-86.9106791,19.774454,-0.10049391,0.13236237,0.26897368,-4.9938207,8.197212,0.08255238,40.350002,-19.087502,-0.13125001,0,
2022-04-15 10:35:26.267,-0.1550442,-0.20252517,0.30358845,40.4389758,-86.9106791,19.774454,0.3351655,-0.20350361,-0.05891931,-5.4592247,8.048857,0.6891329,40.3125,-19.25625,-0.01875,0,
2022-04-15 10:35:26.466,-0.3641917,-0.0522314,0.12425126,40.4389758,-86.9106791,19.774454,0.15825605,-0.30709267,0.17734492,-5.9970117,8.471788,0.84765744,40.29375,-19.331251,0.13125001,0,
2022-04-15 10:35:26.666,0.03397295,0.20677355,-0.19234627,40.4389758,-86.9106791,19.774454,-0.22313404,0.11589527,0.13298887,-5.9970117,8.471788,0.84765744,40.443752,-19.181252,0.056250002,0,
2022-04-15 10:35:26.867,0.021841567,-0.024116913,-0.012417424,40.439151,-86.9106765,19.011557,-0.00991869,0.005047798,-0.03300017,-4.7545385,8.026125,0.97567344,40.40625,-19.143751,-0.0,0,
2022-04-15 10:35:27.066,0.021907426,-0.009864159,0.090583265,40.439151,-86.9106765,19.011557,0.090277195,0.01834488,-0.01720637,-5.1158547,8.602198,0.27218357,40.55625,-19.275002,0.24375,0,
2022-04-15 10:35:27.266,0.11712383,-0.026062474,-0.03890239,40.439151,-86.9106765,19.011557,-0.04216385,0.08020401,-0.087750584,-5.602196,8.559127,0.50129634,40.575,-19.181252,0.28125,0,
2022-04-15 10:35:27.467,0.049617663,0.05806549,-0.07998339,40.439151,-86.9106765,19.011557,-0.08516359,0.06711674,0.021756917,-4.8975096,8.1840515,0.3074777,40.6875,-19.1625,0.39375,0,
2022-04-15 10:35:27.666,0.07280278,-0.1387568,0.20901549,40.439151,-86.9106765,19.011557,0.21407843,0.0046157837,-0.14963387,-4.8975096,8.1840515,0.3074777,40.78125,-19.10625,0.375,0,
2022-04-15 10:35:27.866,0.040894814,0.046235844,0.058768675,40.439317,-86.9106781,18.370287,0.05194187,0.06358242,0.022873878,-4.8532424,8.440681,0.53180486,40.800003,-19.087502,0.39375,0,
2022-04-15 10:35:28.066,0.1321093,0.038679443,-0.26757577,40.439317,-86.9106781,18.370287,-0.26971912,0.12646675,-0.042467892,-5.627321,8.218149,-0.009571291,40.893753,-19.087502,0.41250002,0,
2022-04-15 10:35:28.265,-0.0049447715,-0.26261744,0.08692492,40.439317,-86.9106781,18.370287,0.09553003,-0.12116909,-0.22965273,-4.3932223,8.508279,0.15373886,40.93125,-19.181252,0.52500004,0,
2022-04-15 10:35:28.465,-0.09754766,-0.09831318,0.31495652,40.439317,-86.9106781,18.370287,0.31905127,-0.12480831,-0.031746283,-5.1900325,8.483752,0.038285162,40.95,-19.143751,0.61875004,0,
2022-04-15 10:35:28.665,0.04441432,-0.037544604,-0.0117041115,40.439317,-86.9106781,18.370287,-0.011991978,0.017970085,-0.05524929,-5.1900325,8.483752,0.038285162,40.95,-19.125,0.54375005,0,
2022-04-15 10:35:28.865,-0.034326628,-0.06824001,-0.1081651,40.4394772,-86.9106785,17.977493,-0.106050014,-0.06828785,-0.04030966,-5.128417,8.352147,0.010767702,40.96875,-19.21875,0.73125005,0,
2022-04-15 10:35:29.065,-0.057870027,-0.0053869393,-0.014454711,40.4394772,-86.9106785,17.977493,-0.011541367,-0.053059578,0.025266096,-5.1667023,8.433503,0.24885355,40.95,-19.237501,0.73125005,0,
2022-04-15 10:35:29.265,0.020717496,0.020464728,-0.05995564,40.4394772,-86.9106785,17.977493,-0.060939312,0.026166916,0.0066627264,-4.9519463,8.156534,0.012562319,40.893753,-19.25625,0.84375006,0,
2022-04-15 10:35:29.466,0.0027034003,-0.05054473,-0.1206349,40.4394772,-86.9106785,17.977493,-0.11896467,-0.028788567,-0.04618962,-4.6689954,8.087142,0.08255238,40.893753,-19.2,0.93750006,0,
2022-04-15 10:35:29.665,-0.116747096,-0.18566309,0.0025297855,40.4394772,-86.9106785,17.977493,0.012398243,-0.19357014,-0.102391176,-4.6689954,8.087142,0.08255238,40.7625,-19.2,0.8625,0,
2022-04-15 10:35:29.864,-0.13370375,-0.17904048,0.041767083,40.4396366,-86.9106802,17.532726,0.056796074,-0.20414591,-0.082312435,-4.999803,8.196015,0.20338993,40.74375,-19.1625,0.80625004,0,
2022-04-15 10:35:30.064,0.005646812,0.04542634,0.0818807,40.4396366,-86.9106802,17.532726,0.08058977,0.032919884,0.03494937,-5.511867,8.29113,0.029910283,40.74375,-19.050001,0.76875,0,
2022-04-15 10:35:30.264,0.062232427,0.02303721,-0.15807448,40.4396366,-86.9106802,17.532726,-0.16189718,0.053421974,-0.018069975,-5.2576294,8.447262,0.29910284,40.706253,-18.900002,0.65625,0,
2022-04-15 10:35:30.466,0.038308024,0.07255538,-0.17886876,40.4396366,-86.9106802,17.532726,-0.1789074,0.071232796,0.040544473,-5.411967,8.046464,-0.09332009,40.74375,-18.9375,0.50625,0,
2022-04-15 10:35:30.664,0.04946856,-0.07569483,-0.040392905,40.4396366,-86.9106802,17.532726,-0.04125452,-0.0014066696,-0.0900251,-5.411967,8.046464,-0.09332009,40.706253,-18.91875,0.4875,0,
2022-04-15 10:35:30.864,-0.13452524,-0.15844765,-0.008042905,40.4397897,-86.9106792,17.225672,0.002564907,-0.2001667,-0.05651644,-5.361717,7.969296,0.18903299,40.85625,-18.7875,0.35625002,0,
2022-04-15 10:35:31.064,-0.010203446,0.03134474,0.13552731,40.4397897,-86.9106792,17.225672,0.13361073,0.015882492,0.03674478,-5.1535416,8.476574,0.34277186,40.912502,-18.73125,0.28125,0,
2022-04-15 10:35:31.264,0.07060535,0.089607246,-0.08450036,40.4397897,-86.9106792,17.225672,-0.09061289,0.10569763,0.027788423,-5.8504515,7.820941,0.19262223,40.96875,-18.581251,0.3375,0,
2022-04-15 10:35:31.465,0.047463145,-0.01598886,-0.2278501,40.4397897,-86.9106792,17.225672,-0.22764778,0.039096832,-0.032741215,-5.9706907,8.303095,-0.35593235,41.04375,-18.4125,0.375,0,
2022-04-15 10:35:31.664,-0.059298746,0.01048265,-0.18002719,40.4397897,-86.9106792,17.225672,-0.18014574,-0.03205681,0.050555803,-4.8993044,7.7964144,-0.52223355,41.15625,-18.375,0.35625002,0,
2022-04-15 10:35:31.863,-0.03374681,-0.09335652,-0.025545686,40.4399415,-86.9106773,16.89588,-0.013650417,-0.08031368,-0.06221133,-5.271388,8.316256,0.5940182,41.25,-18.225,0.3375,0,
2022-04-15 10:35:32.065,-0.041574568,-0.05901807,0.07786308,40.4399415,-86.9106773,16.89588,0.08664417,-0.06017399,-0.012087874,-6.358328,7.0061846,0.44506502,41.34375,-18.056252,0.375,0,
2022-04-15 10:35:32.263,-0.14995593,-0.21073401,-0.08832867,40.4399415,-86.9106773,16.89588,-0.05361128,-0.2480216,-0.101531655,-5.1966124,8.06441,0.634098,41.53125,-18.0375,0.43125,0,
2022-04-15 10:35:32.463,-0.041098163,0.054026555,0.2838229,40.4399415,-86.9106773,16.89588,0.28073168,0.01954174,0.077273525,-5.8833528,8.153543,0.33499518,41.4375,-18.056252,0.45000002,0,
2022-04-15 10:35:32.663,0.17108782,-0.02152352,0.096102566,40.4399415,-86.9106773,16.89588,0.095163345,0.1320982,-0.11164235,-5.638088,8.7882395,-0.12502499,41.4375,-18.0,0.375,0,
2022-04-15 10:35:32.863,-0.04479397,-0.019220136,2.6888214E-5,40.4400951,-86.9106786,16.734304,0.0014901161,-0.047899246,0.008908182,-5.5316076,8.277371,0.13280165,41.41875,-18.018751,0.3,0,
2022-04-15 10:35:33.063,0.16008198,0.14636038,-0.0143754445,40.4400951,-86.9106786,16.734304,-0.040658474,0.21094799,0.03319782,-5.6279187,8.545966,0.6580262,41.34375,-18.206251,0.35625002,0,
2022-04-15 10:35:33.263,0.0970443,0.03965056,0.09450615,40.4400951,-86.9106786,16.734304,0.09589577,0.099123,-0.02999682,-6.41097,8.282756,-0.21714866,41.30625,-18.1875,0.39375,0,
2022-04-15 10:35:33.464,-0.021007277,-0.18761006,-0.07552781,40.4400951,-86.9106786,16.734304,-0.07232618,-0.10002422,-0.16157775,-3.7172499,7.9704924,0.050249275,41.25,-18.28125,0.4875,0,
2022-04-15 10:35:33.663,-0.13200462,-0.11419618,0.31928894,40.4400951,-86.9106786,16.734304,0.31945324,-0.16835451,-0.044919543,-4.0420756,8.021938,-0.06580263,41.175003,-18.31875,0.3375,0,
2022-04-15 10:35:33.862,-0.008106943,-0.09142872,0.1614442,40.4402443,-86.9106789,16.573135,0.15201807,-0.057536125,-0.08982909,-3.7740796,7.912466,-0.59760743,41.0625,-18.28125,0.26250002,0,
2022-04-15 10:35:34.062,-0.077114396,-0.24359424,0.114234984,40.4402443,-86.9106789,16.573135,0.13439798,-0.17533779,-0.17183788,-4.7730827,8.811569,0.4761717,41.175003,-18.206251,0.13125001,0,
2022-04-15 10:35:34.262,0.010927033,0.13321072,0.074106306,40.4402443,-86.9106789,16.573135,0.0884366,0.07339668,0.100737944,-5.280361,8.125427,-0.6269195,41.15625,-18.206251,0.0,0,
2022-04-15 10:35:34.464,0.21770741,0.009533733,-0.05877576,40.4402443,-86.9106789,16.573135,-0.06354904,0.1866293,-0.10987734,-5.389833,8.568698,0.36191443,41.175003,-18.112501,-0.16875,0,
2022-04-15 10:35:34.662,0.12870313,0.1557335,-0.24587707,40.4402443,-86.9106789,16.573135,-0.23906183,0.19087505,0.08768758,-4.199404,8.749356,-0.11784652,41.100002,-18.075,-0.4875,0,
2022-04-15 10:35:34.862,0.11271865,-0.21184403,-0.011599518,40.4403937,-86.9106778,16.560268,-0.015389919,-0.012328148,-0.23943496,-5.0135617,8.301898,-0.12981063,41.006252,-18.1875,-0.69375,0,
2022-04-15 10:35:35.062,-0.13163705,-0.0041209534,0.27834284,40.4403937,-86.9106778,16.560268,0.28065825,-0.08892155,0.09024382,-5.3587265,8.431708,0.84107715,40.93125,-18.16875,-0.93750006,0,
2022-04-15 10:35:35.262,0.08990455,0.35683432,-0.1991702,40.4403937,-86.9106778,16.560268,-0.21514368,0.25936222,0.24804592,-4.8508496,7.8687973,0.38584265,40.8375,-18.13125,-1.0125,0,
2022-04-15 10:35:35.462,-0.07854443,-0.07268998,-0.14292906,40.4403937,-86.9106778,16.560268,-0.13289833,-0.11415005,-0.034490198,-5.051847,8.536395,0.83688974,40.800003,-18.13125,-1.25625,0,
2022-04-15 10:35:35.662,-0.20772636,0.032699533,-0.09923859,40.4403937,-86.9106778,16.560268,-0.10238695,-0.15067577,0.1445044,-6.0233326,8.117053,0.54317075,40.631252,-18.16875,-1.3875,0,
2022-04-15 10:35:35.861,0.0069439933,0.13954023,0.035318457,40.4405451,-86.9106769,16.443172,0.019242287,0.074689865,0.12173021,-4.651049,8.477173,0.8889336,40.66875,-18.206251,-1.4250001,0,
2022-04-15 10:35:36.061,0.02317335,0.09828715,0.015433218,40.4405451,-86.9106769,16.443172,0.024821281,0.06798267,0.07209587,-5.13739,8.633304,-0.31405798,40.55625,-18.28125,-1.5,0,
2022-04-15 10:35:36.261,-0.082579985,0.046798036,-0.15391523,40.4405451,-86.9106769,16.443172,-0.15738392,-0.04739952,0.07538563,-5.4299126,8.232507,0.5778667,40.575,-18.150002,-1.5562501,0,
2022-04-15 10:35:36.462,-0.030425888,0.04346191,-0.16228433,40.4405451,-86.9106769,16.443172,-0.16621351,-0.025223732,0.029794455,-3.900301,8.042875,1.2287145,40.518753,-18.0,-1.7437501,0,
2022-04-15 10:35:36.661,0.011636751,0.04628846,0.36528987,40.4405451,-86.9106769,16.443172,0.36375666,0.023446083,0.05334872,-3.8464625,8.273783,0.40797627,40.48125,-18.0375,-2.025,0,
2022-04-15 10:35:36.861,-0.08772979,0.12908602,0.22129649,40.4406947,-86.9106767,16.235388,0.19942904,0.017188072,0.18238556,-5.447261,8.391031,1.2556337,40.40625,-18.206251,-2.1937501,0,
2022-04-15 10:35:37.06,-0.30737576,0.6057114,-0.21971488,40.4406947,-86.9106767,16.235388,-0.33539867,0.037564278,0.62907666,-5.706882,8.216354,1.6193427,40.10625,-18.28125,-2.2687502,0,
2022-04-15 10:35:37.26,-0.34292746,0.6114255,0.037506215,40.4406947,-86.9106767,16.235388,-0.119576454,-0.016392708,0.6915778,-4.863412,8.376076,2.2229323,40.0125,-18.337502,-2.34375,0,
2022-04-15 10:35:37.461,-0.29499966,0.96147686,0.25172436,40.4406947,-86.9106767,16.235388,0.017647266,0.22155762,1.0126345,-4.7808595,8.480762,1.9322042,39.881252,-18.4125,-2.4750001,0,
2022-04-15 10:35:37.66,-0.21584332,0.9926226,0.1372917,40.4406947,-86.9106767,16.235388,-0.10464668,0.2857523,0.97884214,-4.7808595,8.480762,1.9322042,39.84375,-18.487501,-2.5500002,0,
2022-04-15 10:35:37.86,-0.28602383,0.58260196,0.09473166,40.4408362,-86.910677,15.099583,-0.03832245,0.04416561,0.65329134,-4.8652067,8.233703,1.8532411,39.7125,-18.65625,-2.60625,0,
2022-04-15 10:35:38.059,-0.2540512,0.3693363,0.153086,40.4408362,-86.910677,15.099583,0.064537525,-0.032449722,0.46815443,-4.546363,8.229515,1.9884356,39.693752,-18.7875,-2.625,0,
2022-04-15 10:35:38.26,-0.14514253,0.4282516,0.15994397,40.4406947,-86.9106767,15.099583,-0.012077808,0.07892513,0.47294056,-4.4925246,8.19123,3.0556345,39.675003,-18.806252,-2.5687501,0,
2022-04-15 10:35:38.46,-0.122020185,0.2202909,0.08648979,40.4406947,-86.9106767,15.099583,0.016370296,0.007208824,0.26566434,-4.597809,8.098508,2.5208387,39.581253,-18.825,-2.625,0,
2022-04-15 10:35:38.659,-0.1985606,0.14540744,0.099035,40.4406947,-86.9106767,15.099583,0.07372236,-0.088926315,0.23881936,-4.5427737,8.145168,1.8711873,39.16875,-19.40625,-1.725,0,
2022-04-15 10:35:38.859,-0.15348901,0.11887139,0.16467631,40.4409604,-86.910676,13.446819,0.13157368,-0.018370628,0.21715999,-5.4574304,8.121839,2.3084757,38.925003,-19.7625,-1.2750001,0,
2022-04-15 10:35:39.059,0.012058545,0.045185313,0.016404372,40.4409604,-86.910676,13.446819,4.2200089E-4,0.036063194,0.03399253,-5.0189457,7.785647,1.7964116,38.775,-19.78125,-1.06875,0,
2022-04-15 10:35:39.259,-0.08164766,-0.17697491,-0.22161067,40.4409604,-86.910676,13.446819,-0.122189045,-0.21690464,-0.1584928,-5.00399,8.035697,2.4131618,38.79375,-19.78125,-1.1812501,0,
2022-04-15 10:35:39.459,0.05237878,0.074361116,0.063432656,40.4409604,-86.910676,13.446819,0.020876884,0.0963583,0.050754786,-5.1756754,8.392227,2.5932214,38.7,-19.78125,-1.3875,0,
2022-04-15 10:35:39.659,0.17126589,0.07634612,-0.04736241,40.4409604,-86.910676,13.446819,-0.084331036,0.17003536,-0.03715086,-5.30429,8.190632,1.8065811,38.71875,-19.800001,-1.5375,0,
2022-04-15 10:35:39.859,0.037986733,0.0023232922,-0.16618043,40.4410725,-86.9106751,11.653606,-0.16449642,0.0024547577,-0.044712782,-4.8646083,8.154141,1.5924234,38.71875,-19.837502,-1.63125,0,
2022-04-15 10:35:40.059,0.051148407,-0.06355874,-0.24272309,40.4410725,-86.9106751,11.653606,-0.22291994,-0.041199684,-0.1190784,-5.560322,8.156534,1.5984055,38.850002,-19.6875,-1.6125001,0,
2022-04-15 10:35:40.259,0.05351784,-0.21129942,-0.103882164,40.4410725,-86.9106751,11.653606,-0.04164076,-0.08138752,-0.22348428,-5.508876,8.506484,2.1451654,39.412502,-19.087502,-2.5687501,0,
2022-04-15 10:35:40.46,0.048320524,-0.11998476,0.06859802,40.4410725,-86.9106751,11.653606,0.09477091,-0.013155937,-0.11082554,-6.1040907,8.545966,1.9812572,39.61875,-18.768751,-3.15,0,
2022-04-15 10:35:40.659,0.04619295,-0.108239785,-0.08482119,40.4410725,-86.9106751,11.653606,-0.05238247,-0.016797066,-0.13423193,-4.0241294,7.9830546,2.1858435,39.75,-18.65625,-3.54375,0,
2022-04-15 10:35:40.859,0.030488115,0.008413462,0.05059487,40.4411712,-86.9106726,10.195269,0.04791546,0.035550117,6.7162514E-4,-4.612764,8.017751,1.570888,39.693752,-18.618752,-3.5625002,0,
2022-04-15 10:35:41.059,0.08913948,-0.081049785,-0.14275779,40.4411712,-86.9106726,10.195269,-0.111876965,0.002120018,-0.14957857,-5.0590253,7.8909307,2.5351956,39.73125,-18.65625,-3.4875002,0,
2022-04-15 10:35:41.259,-0.009103933,-0.0467414,-0.046001468,40.4411712,-86.9106726,10.195269,-0.020974636,-0.043622017,-0.045176983,-5.5459647,7.9710903,2.9712875,39.581253,-18.675001,-3.5625002,0,
2022-04-15 10:35:41.459,-0.081259385,0.21794514,0.08119267,40.4411712,-86.9106726,10.195269,-6.723404E-5,0.050247192,0.2411859,-4.9417768,7.776674,2.7044878,39.43125,-18.54375,-3.80625,0,
2022-04-15 10:35:41.659,-0.06186202,0.08612009,-0.017206602,40.4411712,-86.9106726,10.195269,-0.040311813,-0.0233984,0.09678388,-4.377071,8.436495,2.5746772,39.3375,-18.6375,-4.0687504,0,
2022-04-15 10:35:41.858,-0.05915838,0.085441485,0.023000477,40.4412513,-86.9106702,8.914623,-0.002887249,0.0013093948,0.106390476,-5.4867425,7.616953,2.3114667,39.3375,-18.69375,-4.2937503,0,
2022-04-15 10:35:42.058,-0.06934811,0.10004249,-0.0295428,40.4412513,-86.9106702,8.914623,-0.051412106,-0.0023708344,0.11419988,-5.8414783,7.825128,1.8161523,39.375,-18.806252,-4.5,0,
2022-04-15 10:35:42.26,-0.030728923,0.022860032,0.040167928,40.4412513,-86.9106702,8.914623,0.034240723,-0.0068130493,0.043144703,-6.4941206,8.3581295,1.8089739,39.3375,-18.993752,-4.6875,0,
2022-04-15 10:35:42.457,0.009774499,-0.016624372,0.024155676,40.4412513,-86.9106702,8.914623,0.027665615,0.004524231,-0.013021231,-4.9585266,8.285747,2.3515465,39.46875,-19.10625,-4.74375,0,
2022-04-15 10:35:42.657,0.010273267,0.03493571,-0.009329305,40.4412513,-86.9106702,8.914623,-0.022472858,0.023581505,0.018760681,-5.671588,7.78445,2.7583263,39.45,-19.181252,-4.93125,0,
2022-04-15 10:35:42.857,0.023277272,-0.111223206,0.19006559,40.4413204,-86.9106735,7.33748,0.21226454,-0.01017189,-0.06227088,-5.231907,8.391629,2.2301106,39.6375,-19.125,-5.0625,0,
2022-04-15 10:35:43.057,-0.06467917,0.14613126,-0.04886449,40.4413204,-86.9106735,7.33748,-0.091741085,-7.123947E-4,0.139673,-4.874778,8.301898,2.6997023,39.787502,-19.25625,-4.93125,0,
2022-04-15 10:35:43.258,-0.089356035,0.21826598,0.075493515,40.4413204,-86.9106735,7.33748,0.02110529,0.046616554,0.24229169,-5.337191,8.249256,2.036292,39.80625,-19.35,-4.8375,0,
2022-04-15 10:35:43.456,-0.15021752,0.10286306,0.15239143,40.4413204,-86.9106735,7.33748,0.11630201,-0.048139572,0.20130992,-5.229514,8.343773,2.702095,39.73125,-19.425001,-4.8187504,0,
2022-04-15 10:35:43.657,-0.013695471,0.15604879,-0.025005702,40.4413204,-86.9106735,7.33748,-0.08639526,0.046996117,0.124464035,-5.0339007,8.099705,3.2135608,39.75,-19.3125,-4.78125,0,
2022-04-15 10:35:43.856,0.019974092,-0.11967249,0.118485376,40.4413758,-86.9106758,5.554539,0.15116262,-0.0070724487,-0.07654476,-4.563711,8.300702,2.7762725,39.65625,-19.35,-4.59375,0,
2022-04-15 10:35:44.056,-0.083591364,0.25178832,-0.12173401,40.4413758,-86.9106758,5.554539,-0.20129538,0.003575325,0.21135616,-4.604389,7.9740815,2.8959136,39.61875,-19.3125,-4.8562503,0,
2022-04-15 10:35:44.256,-0.011993677,-0.11629976,0.20951375,40.4413758,-86.9106758,5.554539,0.23858404,-0.0076704025,-0.024172544,-5.2259245,8.229515,3.089134,39.675003,-19.275002,-5.0062504,0,
2022-04-15 10:35:44.456,0.012886032,0.043888465,0.13742957,40.4413758,-86.9106758,5.554539,0.12018347,0.053837776,0.060303926,-5.2480583,8.225926,2.260021,39.46875,-19.3875,-5.0062504,0,
2022-04-15 10:35:44.656,0.0827547,-0.1060034,-0.35721332,40.4413758,-86.9106758,5.554539,-0.32381058,-0.014925003,-0.2015202,-5.0847483,8.4682,1.9938195,39.487503,-19.3125,-5.08125,0,
2022-04-15 10:35:44.856,0.16825952,-0.18279697,0.06882368,40.4414176,-86.9106788,3.585704,0.11400986,0.055844307,-0.22437882,-5.1122656,8.154739,2.065006,40.2,-19.275002,-5.90625,0,
2022-04-15 10:35:45.055,0.1369906,-0.26225084,0.06915755,40.4414176,-86.9106788,3.585704,0.13629198,-0.008723259,-0.27142787,-5.308477,8.350951,2.3054845,39.600002,-18.9375,-5.775,0,
2022-04-15 10:35:45.255,0.09797478,-0.055031255,-0.11573486,40.4414176,-86.9106788,3.585704,-0.09712887,0.043120384,-0.12136173,-5.0799623,8.405986,2.2743778,40.537502,-18.91875,-5.25,0,
2022-04-15 10:35:45.456,0.009951768,-0.029064357,-0.123882,40.4414176,-86.9106788,3.585704,-0.114153385,-0.016158104,-0.054758072,-5.0596237,8.268398,2.0315065,39.881252,-19.66875,-5.86875,0,
2022-04-15 10:35:45.655,0.029659785,-0.055159364,0.15187258,40.4414176,-86.9106788,3.585704,0.16119337,0.00518322,-0.031262875,-5.453243,8.396415,2.012364,40.36875,-19.706251,-6.2250004,0,
2022-04-15 10:35:45.855,0.07594507,-0.097941965,-0.21146259,40.4414388,-86.9106781,2.181403,-0.18669939,0.010476112,-0.15846229,-4.6097727,8.220542,1.7156538,40.331253,-19.5,-5.5875,0,
2022-04-15 10:35:46.055,0.061152395,-0.15732759,0.04745593,40.4414388,-86.9106781,2.181403,0.07639456,-0.025670052,-0.15571952,-5.0165524,8.279166,1.6749759,39.9,-19.21875,-5.26875,0,
2022-04-15 10:35:46.255,0.11895949,-0.11042707,0.016426923,40.4414388,-86.9106781,2.181403,0.040095806,0.0439806,-0.15189922,-4.935197,8.106883,1.4524434,39.693752,-19.331251,-5.8125,0,
2022-04-15 10:35:46.455,0.07667135,-0.16805357,-0.07052977,40.4414388,-86.9106781,2.181403,-0.046072483,-0.02096939,-0.19113493,-5.1361938,8.438289,1.3184453,39.825,-19.575,-5.4750004,0,
2022-04-15 10:35:46.656,0.1904325,-0.26216513,-0.08039819,40.4414388,-86.9106781,2.181403,-0.039790154,0.021538734,-0.33077455,-5.2366924,8.280363,1.2095718,40.55625,-19.237501,-5.11875,0,
2022-04-15 10:35:46.855,0.1644878,-0.22367397,-0.027703013,40.4414505,-86.9106774,1.129289,0.012802601,0.023033142,-0.27777565,-5.103891,8.353344,1.3890336,40.03125,-19.59375,-6.7500005,0,
2022-04-15 10:35:47.054,0.085744575,-0.18745321,-0.043885,40.4414505,-86.9106774,1.129289,-0.019450665,-0.017762184,-0.20910025,-4.7976093,8.299505,1.2203395,39.43125,-20.00625,-7.1062503,0,
2022-04-15 10:35:47.255,0.06592352,-0.07499661,-0.06465708,40.4414505,-86.9106774,1.129289,-0.05047655,0.015673637,-0.10657108,-5.2055855,8.312666,1.3746766,40.256252,-19.3125,-5.1000004,0,
2022-04-15 10:35:47.454,0.02810745,-0.033200223,0.01936403,40.4414505,-86.9106774,1.129289,0.025431156,0.0064439774,-0.03973639,-5.0177493,8.32463,1.4033905,40.518753,-19.78125,-5.9437504,0,
2022-04-15 10:35:47.654,0.019810298,-0.05386536,-0.016944122,40.4414505,-86.9106774,1.129289,-0.01029253,-0.010678291,-0.057974696,-5.0644093,8.333005,1.2071791,39.9,-20.400002,-5.5875,0,
2022-04-15 10:35:47.855,0.028231435,-0.03100697,-0.0068173064,40.4414579,-86.9106788,0.63172376,-0.0018138885,0.008641243,-0.041556716,-4.938786,8.3581295,1.0707881,38.8875,-20.868752,-5.4,0,
2022-04-15 10:35:48.055,0.03403982,-0.06107756,-0.004820149,40.4414579,-86.9106788,0.63172376,0.0015983582,-0.0026607513,-0.07001984,-5.032106,8.303095,0.9176475,39.84375,-20.306252,-5.2125,0,
2022-04-15 10:35:48.255,0.075968415,-0.11254114,-0.036727127,40.4414579,-86.9106788,0.63172376,-0.022966862,0.009559631,-0.13844395,-4.9722853,8.27797,0.91166544,40.55625,-20.34375,-6.1125,0,
2022-04-15 10:35:48.455,0.115046486,-0.16491038,-0.014592463,40.4414579,-86.9106788,0.63172376,0.002851963,0.01063633,-0.20130277,-5.1086764,8.242078,0.7788638,39.24375,-20.681252,-5.8500004,0,
2022-04-15 10:35:48.655,0.14599712,-0.21277632,-0.043567747,40.4414579,-86.9106788,0.63172376,-0.02700758,0.016460419,-0.25978208,-4.9136615,8.402397,0.67836523,38.775,-21.618752,-0.80625004,0,
2022-04-15 10:35:48.855,0.09172038,-0.16034624,-0.003988303,40.4414602,-86.9106805,0.62385416,0.0066170692,-0.005548477,-0.18456674,-5.058427,8.366505,0.6029913,40.2,-20.34375,-6.05625,0,
2022-04-15 10:35:49.055,0.066700086,-0.09899379,-0.019546816,40.4414602,-86.9106805,0.62385416,-0.010638714,0.00754261,-0.12025255,-4.9160542,8.325827,0.6963114,40.6875,-21.431252,-3.80625,0,
2022-04-15 10:35:49.258,0.033585656,-0.04223246,-0.009810548,40.4414602,-86.9106805,0.62385416,-0.00543499,0.0074472427,-0.05406314,-5.035695,8.323434,0.66400826,40.40625,-20.550001,-5.0062504,0,
2022-04-15 10:35:49.455,0.019214366,-0.036084335,-0.0026308082,40.4414602,-86.9106805,0.62385416,-3.504753E-4,-0.002087593,-0.04091102,-5.0165524,8.348558,0.6113662,40.36875,-20.38125,-5.6625004,0,
2022-04-15 10:35:49.655,0.012717834,-0.020538567,-0.0090664355,40.4414602,-86.9106805,0.62385416,-0.007001877,5.8078766E-4,-0.02482766,-5.1026945,8.348558,0.8171489,40.36875,-20.7,-4.7250004,0,
2022-04-15 10:35:49.854,5.7921215E-4,-2.4442165E-4,0.0031612043,40.4414604,-86.9106848,0.3833111,0.0032029152,2.0980835E-4,-2.9283762E-4,-5.1326046,8.323434,0.6759724,40.143753,-20.1,-3.7875001,0,
2022-04-15 10:35:50.054,-0.0038569195,0.004973801,-0.0033374166,40.4414604,-86.9106848,0.3833111,-0.003894329,-4.2915344E-4,0.0059500337,-5.0476594,8.305488,0.8219346,40.66875,-21.112501,-5.0625,0,
2022-04-15 10:35:50.255,0.007234421,-0.008598754,0.004624024,40.4414604,-86.9106848,0.3833111,0.005203724,0.0026102066,-0.010666072,-5.231907,8.312666,0.89371926,34.40625,-23.8875,-0.22500001,0,
2022-04-15 10:35:50.454,8.668506E-4,0.007277203,0.0030885306,40.4414604,-86.9106848,0.3833111,-7.033348E-4,0.0051469803,0.0060217977,-5.0309095,8.4502535,0.7286145,35.287502,-25.781252,10.668751,0,
2022-04-15 10:35:50.653,0.0024678,-0.007831301,-0.0041487347,40.4414604,-86.9106848,0.3833111,-4.992485E-4,-0.004169464,-0.008185208,-5.0452666,8.315059,0.5192425,30.487501,-27.937502,14.718751,0,
2022-04-15 10:35:50.853,0.022525977,-0.03247681,-0.0028230273,40.4414602,-86.9106861,0.19364074,-2.808571E-4,0.0023794174,-0.03955239,-5.0596237,8.306684,0.573081,39.46875,-22.837502,-4.36875,0,
2022-04-15 10:35:51.052,0.020049814,-0.031016195,-4.0812092E-4,40.4414602,-86.9106861,0.19364074,0.0018429756,9.92775E-4,-0.036875248,-5.076373,8.458628,0.5623133,40.96875,-22.5375,-5.49375,0,
2022-04-15 10:35:51.252,0.020372033,0.00262092,0.025301514,40.4414602,-86.9106861,0.19364074,0.027008057,0.016990662,-0.006628573,-5.12423,8.372486,0.68075806,40.125,-22.25625,-4.275,0,
2022-04-15 10:35:51.451,0.009227444,-0.006472962,0.0046342835,40.4414602,-86.9106861,0.19364074,0.005741596,0.0036792755,-0.010100424,-5.109873,8.262417,0.51206404,40.443752,-20.643751,-5.3625,0,
2022-04-15 10:35:51.652,-7.1332976E-4,-0.03670125,-0.035255853,40.4414602,-86.9106861,0.19364074,-0.034778118,-0.017089844,-0.032998264,-5.1649075,8.383254,0.6113662,40.050003,-20.4375,-4.2937503,0,
2022-04-15 10:35:51.852,-0.0026699752,-0.01929213,-0.030554444,40.4414599,-86.910684,0.05906357,-0.030732632,-0.008983612,-0.016961396,-5.0344987,8.382058,0.58504516,39.35625,-21.0375,-4.7625003,0,
2022-04-15 10:35:52.051,0.009275463,-0.0014932347,0.02181968,40.4414599,-86.910684,0.05906357,0.022310257,0.006669998,-0.0047038198,-5.0775695,8.237292,0.63170516,39.46875,-22.931252,-3.05625,0,
2022-04-15 10:35:52.251,-5.089119E-5,0.017050056,0.015952002,40.4414599,-86.910684,0.05906357,0.01595068,0.0071792603,0.015466332,-5.1361938,8.322237,0.587438,39.9375,-20.831251,-4.9125004,0,
2022-04-15 10:35:52.452,0.0068440326,-0.001594855,6.0098525E-4,40.4414599,-86.910684,0.05906357,0.001437664,0.0048913956,-0.004873693,-5.083552,8.334201,0.66041905,39.881252,-20.625,-4.9875,0,
2022-04-15 10:35:52.651,-0.009450182,-0.009626844,-0.020044671,40.4414599,-86.910684,0.05906357,-0.021799564,-0.009736061,-0.0037093163,-5.0715876,8.220542,0.23090738,40.2,-20.456251,-4.7250004,0,
2022-04-15 10:35:52.851,0.066040695,-0.0874231,-0.022910722,40.4414613,-86.9106839,0.102816515,-0.020020485,0.015563965,-0.109023005,-4.999803,8.342576,0.03708875,40.162502,-20.118752,-4.55625,0,
2022-04-15 10:35:53.051,0.17593576,-0.27998638,-0.0010493826,40.4414613,-86.9106839,0.102816515,0.0036711693,0.0040769577,-0.33063087,-5.1206403,8.407183,0.11964113,40.631252,-19.3875,-4.4625,0,
2022-04-15 10:35:53.251,0.1097354,-0.1459515,-0.0073179137,40.4414613,-86.9106839,0.102816515,-0.0051436424,0.01734829,-0.18185112,-5.1146584,8.333005,0.08733802,39.506252,-22.95,-1.0500001,0,
2022-04-15 10:35:53.451,0.06634631,-0.11656158,-0.014062179,40.4414613,-86.9106839,0.102816515,-0.013391018,-7.696152E-4,-0.13418743,-5.032106,8.360522,0.076570325,39.675003,-21.35625,-4.6875,0,
2022-04-15 10:35:53.654,0.041003842,-0.06259845,-0.009621703,40.4414613,-86.9106839,0.102816515,-0.008337498,0.0033750534,-0.074910305,-5.206782,8.3377905,0.101694964,39.43125,-21.150002,-4.9875,0,
2022-04-15 10:35:53.85,0.016132493,-0.058493596,-0.022077056,40.4414597,-86.9106855,0.08954079,-0.024245262,-0.013254166,-0.05835794,-5.231907,8.579466,0.008374879,39.018753,-22.331251,-3.2625,0,
2022-04-15 10:35:54.051,0.047630724,-0.057928655,0.0050831363,40.4414597,-86.9106855,0.08954079,0.0031123161,0.011498451,-0.07421827,-4.843073,8.288737,-0.5910272,39.5625,-20.550001,-3.0187502,0,
2022-04-15 10:35:54.251,0.119553216,-0.15498738,0.018577397,40.4414597,-86.9106855,0.08954079,0.009366035,0.017064095,-0.19565344,-5.4017973,8.529217,-0.587438,36.75,-22.5375,-0.075,0,
2022-04-15 10:35:54.45,0.17174429,-0.26359817,-0.013010705,40.4414597,-86.9106855,0.08954079,-0.030738354,0.013133049,-0.3131007,-5.352744,8.575876,-0.64008003,39.54375,-19.7625,-2.775,0,
2022-04-15 10:35:54.65,0.13569558,-0.23968281,0.024756316,40.4414597,-86.9106855,0.08954079,0.010641575,-0.01848507,-0.2757156,-5.7020965,8.842676,-0.40079778,39.300003,-20.23125,-3.2625,0,
2022-04-15 10:35:54.85,0.12154801,-0.15240233,-0.009864632,40.4414674,-86.9106835,1.0921894,-0.02700901,0.025748253,-0.1915861,-5.0392847,8.243274,-0.9320044,38.756252,-21.91875,2.5500002,0,
2022-04-15 10:35:55.049,0.097996585,-0.12010874,0.01971602,40.4414674,-86.9106835,1.0921894,-2.7179718E-5,0.02307415,-0.15455014,-5.0644093,8.391629,-1.7419748,39.09375,-20.71875,-1.10625,0,
2022-04-15 10:35:55.25,0.12689298,-0.21115328,0.025970828,40.4414674,-86.9106835,1.0921894,-0.013595581,-6.322861E-4,-0.24733943,-5.332405,8.453842,-1.5684953,40.725002,-19.21875,-3.1312501,0,
2022-04-15 10:35:55.449,0.32799482,-0.45513183,0.0815809,40.4414674,-86.9106835,1.0921894,0.018267155,0.03740692,-0.56537426,-5.1385865,8.361719,-1.3196417,40.125,-19.21875,-2.5687501,0,
2022-04-15 10:35:55.649,0.21725962,-0.4099771,0.07659871,40.4414674,-86.9106835,1.0921894,-0.0053400993,-0.02407837,-0.46961904,-5.0679984,8.452646,-1.5661024,39.975002,-18.487501,-3.0187502,0,
2022-04-15 10:35:55.85,0.16453153,-0.26516446,0.068574734,40.4414866,-86.9106823,2.7310848,0.023704529,-0.003499031,-0.31860816,-5.022535,8.364112,-1.4009976,40.6875,-18.65625,-3.6562502,0,
2022-04-15 10:35:56.049,0.061632395,-0.08145031,-0.031383365,40.4414866,-86.9106823,2.7310848,-0.036863327,0.020067215,-0.09826505,-5.083552,8.407183,-0.9092726,40.10625,-19.35,-2.60625,0,
2022-04-15 10:35:56.249,-0.01402318,-0.013625782,0.06660599,40.4414866,-86.9106823,2.7310848,0.061747074,-0.03118515,-0.0057840347,-5.304888,8.2145605,-0.28594232,40.537502,-19.050001,-3.3750002,0,
2022-04-15 10:35:56.449,-0.024661288,0.2593451,0.1470578,40.4414866,-86.9106823,2.7310848,0.17474699,0.08505249,0.22742832,-5.558527,8.623733,-0.26799613,40.518753,-20.60625,-3.8812501,0,
2022-04-15 10:35:56.65,-0.1661632,0.4388211,-0.07829964,40.4414866,-86.9106823,2.7310848,-1.9931793E-4,0.1064415,0.46365416,-5.3276196,8.295917,-0.75254273,39.693752,-21.0,-6.76875,0,
2022-04-15 10:35:56.849,-0.046777166,0.16734917,0.002096247,40.4415304,-86.9106801,4.3062825,0.03652382,0.03732586,0.16574389,-5.1613183,8.295917,-0.98943216,40.050003,-20.2875,-6.1312504,0,
2022-04-15 10:35:57.049,-0.11485596,0.048999332,0.037981287,40.4415304,-86.9106801,4.3062825,0.018271446,-0.0744524,0.10563332,-5.7631135,8.042277,-0.27517462,40.125,-20.53125,-5.7937503,0,
2022-04-15 10:35:57.249,-0.23716608,0.15545827,-0.22451536,40.4415304,-86.9106801,4.3062825,-0.24482393,-0.020816803,0.2654243,-5.7894344,8.105687,-0.047856454,39.45,-20.5125,-7.0875,0,
2022-04-15 10:35:57.448,-0.059000716,0.11723078,-0.009305585,40.4415304,-86.9106801,4.3062825,0.0014781952,0.020931244,0.12988621,-5.8420763,8.152347,-0.317049,40.256252,-19.837502,-5.7937503,0,
2022-04-15 10:35:57.648,-0.16706069,0.13656706,-0.098894246,40.4415304,-86.9106801,4.3062825,-0.10391617,-0.02165699,0.21230239,-5.631508,7.9968133,-0.4642076,40.2,-20.56875,-6.3187504,0,
2022-04-15 10:35:57.849,-0.21925646,-0.05699607,-0.18493718,40.4415743,-86.9106745,5.406811,-0.23049688,-0.15494347,0.091582835,-6.088537,8.222337,-0.38584265,39.80625,-20.71875,-3.8437502,0,
2022-04-15 10:35:58.048,-0.18315373,0.12478095,-0.40508065,40.4415743,-86.9106745,5.406811,-0.4028306,0.028920174,0.2238237,-6.2811594,7.885547,-0.30388847,39.862503,-20.831251,-3.1125002,0,
2022-04-15 10:35:58.248,-0.2896484,-0.0891911,-0.19337796,40.4415743,-86.9106745,5.406811,-0.255651,-0.20793056,0.1437141,-7.0450683,7.4853473,-0.55034924,39.7125,-20.98125,-2.04375,0,
2022-04-15 10:35:58.449,-0.2639661,-0.081664994,-0.20213412,40.4415743,-86.9106745,5.406811,-0.2547431,-0.1979413,0.114589155,-5.753542,7.2263246,-0.6556334,39.73125,-20.94375,-1.95,0,
2022-04-15 10:35:58.648,-0.3890103,-0.05542673,-0.04139054,40.4415743,-86.9106745,5.406811,-0.1014514,-0.3389225,0.17593598,-5.0889354,7.468598,-0.7046863,39.768753,-21.018751,-1.44375,0,
2022-04-15 10:35:58.848,-0.09695259,0.07554338,0.17282529,40.4416285,-86.9106723,6.3994308,0.16755915,-0.06825209,0.11063802,-6.98106,6.9188466,-0.63529444,39.787502,-20.98125,-1.3687501,0,
2022-04-15 10:35:59.048,-0.87963575,-0.45723426,-1.162027,40.4416285,-86.9106723,6.3994308,-1.3334775,-0.72618675,0.16619115,-4.90409,8.362317,-0.971486,39.862503,-20.8125,-1.3312501,0,
2022-04-15 10:35:59.248,-0.3057271,0.3234279,0.22797772,40.4416285,-86.9106723,6.3994308,0.20176935,-0.009650707,0.45743245,-6.9320073,7.272386,0.57906306,39.6375,-20.4375,-3.2625,0,
2022-04-15 10:35:59.447,-0.9064846,0.1673226,-1.167561,40.4416285,-86.9106723,6.3994308,-1.2434235,-0.6145749,0.5376857,-4.008576,7.2586274,0.33080772,40.5,-20.04375,-3.5625002,0,
2022-04-15 10:35:59.647,-1.2157207,-0.23980835,-0.81266177,40.4416285,-86.9106723,6.3994308,-0.9213829,-1.1390786,0.22238907,-3.915256,9.16152,0.424726,40.78125,-19.81875,-3.9562502,0,
2022-04-15 10:35:59.847,0.29200143,1.1143749,0.2761337,40.4416902,-86.9106886,7.122359,0.42793226,0.9318409,0.5932056,-6.719046,6.725028,0.40618163,41.175003,-19.59375,-4.6687503,0,
2022-04-15 10:36:00.047,-1.5988736,-0.51774764,-0.9159541,40.4416902,-86.9106886,7.122359,-1.3699374,-1.2752929,0.40041375,-4.310072,8.474779,-1.4727824,41.475002,-19.40625,-4.51875,0,
2022-04-15 10:36:00.247,-0.06639192,0.07154903,0.29630703,40.4416902,-86.9106886,7.122359,0.28837633,-0.05197239,0.1070652,-7.578069,7.888538,0.35174492,41.831253,-19.2,-4.51875,0,
2022-04-15 10:36:00.446,-0.95287204,0.4281059,-1.1724691,40.4416902,-86.9106886,7.122359,-1.179184,-0.03217125,1.0365393,-6.157929,7.376474,-0.8285148,42.3375,-18.88125,-4.36875,1,
2022-04-15 10:36:00.646,-0.68861336,-0.5218284,-0.57967055,40.4416902,-86.9106886,7.122359,-0.76799107,-0.70076466,0.04037097,-5.866603,7.2580295,-0.21475583,42.7125,-18.712502,-4.3125,0,
2022-04-15 10:36:00.846,-0.4120412,0.041687936,-0.09973907,40.4417544,-86.9107211,7.710829,-0.14591217,-0.29029799,0.27550036,-5.853442,7.940582,0.2434697,43.10625,-18.4125,-4.14375,0,
2022-04-15 10:36:01.046,-0.66625226,0.44833753,-0.42986894,40.4417544,-86.9107211,7.710829,-0.4627409,-0.13903522,0.7721567,-6.3744793,7.5272217,0.012562319,43.518753,-17.94375,-3.9375002,1,
2022-04-15 10:36:01.246,-0.5882725,-0.04655546,-0.3942108,40.4417544,-86.9107211,7.710829,-0.4716158,-0.40023708,0.3478834,-6.363712,7.5379896,-0.09990034,44.025,-17.4375,-3.73125,1,
2022-04-15 10:36:01.446,-0.43713707,-0.028914705,-0.2533192,40.4417544,-86.9107211,7.710829,-0.2999792,-0.32689524,0.24340808,-6.13759,7.7629147,0.19441684,44.49375,-16.85625,-3.7875001,0,
2022-04-15 10:36:01.646,-0.21589607,0.12214248,-0.21545115,40.4417544,-86.9107211,7.710829,-0.22740507,-0.058059692,0.22992411,-6.2494545,7.7347994,0.035294134,45.018753,-16.3125,-3.8625002,0,
2022-04-15 10:36:01.846,-0.32117915,-0.12927794,-0.17577623,40.4418162,-86.9107723,8.16449,-0.22397614,-0.2978816,0.108937345,-6.431309,7.624131,-0.037686955,45.5625,-15.750001,-3.6937501,0,
2022-04-15 10:36:02.045,0.013101302,0.10621931,-0.07801221,40.4418162,-86.9107723,8.16449,-0.0610919,0.08979654,0.07579217,-6.283552,7.6773715,-0.2434697,45.99375,-15.262501,-3.7125,0,
2022-04-15 10:36:02.246,0.014552892,0.010775115,-0.074496254,40.4418162,-86.9107723,8.16449,-0.07049799,0.030116081,-7.980317E-4,-6.701698,7.335198,-0.14177474,46.575,-14.7375,-3.5062501,0,
2022-04-15 10:36:02.445,-0.14983085,-0.12730579,-0.37077516,40.4418162,-86.9107723,8.16449,-0.39842224,-0.13073349,0.017284304,-6.8835526,7.4709907,-0.25722843,47.0625,-14.118751,-3.24375,0,
2022-04-15 10:36:02.645,-0.10460311,-0.03391032,-0.13719569,40.4418162,-86.9107723,8.16449,-0.14850855,-0.083426,0.04358545,-6.4821568,7.5810604,-0.10049855,47.5875,-13.5375,-3.075,0,
2022-04-15 10:36:02.845,-0.04963527,0.13798891,-0.03754057,40.4418751,-86.9108417,9.049846,-0.028564453,0.048250675,0.14060527,-5.9084773,7.722835,-0.23090738,47.98125,-13.031251,-2.7562501,0,
2022-04-15 10:36:03.045,0.082373545,0.08132472,0.27224502,40.4418751,-86.9108417,9.049846,0.28519773,0.078538895,0.0032213926,-6.005985,7.8717885,-0.41694933,48.393753,-12.69375,-2.3625002,0,
2022-04-15 10:36:03.245,0.18228984,0.023022704,0.17051782,40.4418751,-86.9108417,9.049846,0.18548346,0.13132334,-0.105764,-6.0831532,7.6343007,-0.59342,48.825,-12.431251,-2.04375,0,
2022-04-15 10:36:03.445,0.06074316,-0.14809257,0.11544215,40.4418751,-86.9108417,9.049846,0.10551977,-0.05287075,-0.15817171,-5.994619,7.778468,-0.33020952,49.2,-12.262501,-1.7625,0,
2022-04-15 10:36:03.645,0.053313237,0.07642357,-0.12867779,40.4418751,-86.9108417,9.049846,-0.1171546,0.101237774,0.035588562,-5.9024954,7.8945203,-0.4863412,49.55625,-12.13125,-1.4625001,0,
2022-04-15 10:36:03.845,0.17740534,0.03941354,0.2991567,40.441931,-86.9109255,10.006907,0.31004286,0.13893557,-0.084209025,-5.5710893,8.130812,-0.5461618,49.725002,-12.1125,-1.25625,0,
2022-04-15 10:36:04.044,0.21187593,0.14025205,0.30041188,40.441931,-86.9109255,10.006907,0.32120466,0.22549295,-0.028104186,-5.9844494,8.030911,-0.46660042,49.987503,-12.187501,-1.1437501,0,
2022-04-15 10:36:04.244,0.12886867,0.04541026,0.16169277,40.441931,-86.9109255,10.006907,0.16958761,0.11882305,-0.043987453,-5.73081,8.139186,-0.42891344,50.11875,-12.337501,-0.93750006,0,
2022-04-15 10:36:04.444,0.061148793,0.14301762,0.07526718,40.441931,-86.9109255,10.006907,0.08936787,0.12508869,0.0788959,-5.5477595,7.999206,-0.4761717,50.250004,-12.4875,-0.80625004,0,
2022-04-15 10:36:04.644,-0.036409557,0.043230675,0.10359454,40.441931,-86.9109255,10.006907,0.10546827,-0.013583183,0.051169485,-5.555536,8.048259,-0.4749753,50.381252,-12.543751,-0.76875,0,
2022-04-15 10:36:04.844,-0.08566868,0.05779273,-0.0413049,40.4419931,-86.9110215,11.029349,-0.041191578,-0.0338192,0.09769717,-5.812166,7.998608,-0.14237295,50.456253,-12.525001,-0.675,0,
2022-04-15 10:36:05.044,-0.05340565,0.08109529,0.009246515,40.4419931,-86.9110215,11.029349,0.0123615265,5.893707E-4,0.09675202,-5.552545,8.2014,-0.31345975,50.531254,-12.450001,-0.61875004,0,
2022-04-15 10:36:05.244,0.020404786,0.059506934,0.02113986,40.4419931,-86.9110215,11.029349,0.022752285,0.04469061,0.043467313,-4.6450667,9.100503,-0.12323037,50.5875,-12.337501,-0.54375005,0,
2022-04-15 10:36:05.444,0.09972929,0.25184518,0.31121418,40.4419931,-86.9110215,11.029349,0.34622908,0.18517685,0.1267325,-5.367101,8.087142,-0.8566305,50.737503,-12.187501,-0.6,0,
2022-04-15 10:36:05.643,0.18821806,0.23381624,-0.003491206,40.4419931,-86.9110215,11.029349,0.055405617,0.2742958,0.10862912,-4.558925,7.95793,-1.3764713,50.906254,-12.01875,-0.61875004,1,
2022-04-15 10:36:05.843,-0.0096022785,-0.3622263,0.037708934,40.4420611,-86.9111258,11.730713,0.047277927,-0.2266016,-0.28131583,-6.186643,8.120642,0.24825534,51.075,-11.85,-0.58125,0,
2022-04-15 10:36:06.043,-0.044418715,0.34115988,-0.23198931,40.4420611,-86.9111258,11.730713,-0.20580912,0.1516285,0.326854,-5.063213,8.423932,-0.5084748,51.16875,-11.83125,-0.61875004,0,
2022-04-15 10:36:06.243,0.18504904,0.011457682,0.154622,40.4420611,-86.9111258,11.730713,0.15994883,0.14937115,-0.10191673,-5.4346986,8.001599,-0.47198427,51.206253,-11.75625,-0.46875003,1,
2022-04-15 10:36:06.443,-0.03647601,-0.023189854,0.10241073,40.4420611,-86.9111258,11.730713,0.09934616,-0.049729347,-0.0036818683,-5.4346986,8.001599,-0.47198427,51.300003,-11.6625,-0.45000002,1,
2022-04-15 10:36:06.643,-0.041647874,-0.13935886,0.09357821,40.4420611,-86.9111258,11.730713,0.08908987,-0.11408234,-0.0946601,-5.440082,8.228319,-0.14656039,51.2625,-11.6625,-0.43125,1,
2022-04-15 10:36:06.843,0.005643286,0.14451402,0.12090713,40.4421301,-86.9112376,12.551509,0.13383341,0.070031166,0.112778276,-5.023133,8.294122,-0.6161518,51.206253,-11.700001,-0.46875003,1,
2022-04-15 10:36:07.043,0.015929326,-0.047592454,-0.07040175,40.4421301,-86.9112376,12.551509,-0.07211256,-0.0137376785,-0.045675457,-6.309275,8.149954,-0.24825534,51.075,-11.7375,-0.31875002,0,
2022-04-15 10:36:07.243,-0.19639884,-0.08477861,-0.44206327,40.4421301,-86.9112376,12.551509,-0.45010662,-0.18808842,0.056627005,-5.372485,8.084151,-0.40797627,50.943752,-11.887501,-0.20625001,0,
2022-04-15 10:36:07.442,-0.11741713,-0.059954975,-0.11961846,40.4421301,-86.9112376,12.551509,-0.1265893,-0.12241602,0.026065826,-5.793622,8.002197,-0.47916272,50.86875,-11.925,-0.28125,0,
2022-04-15 10:36:07.642,-0.049045376,-0.01745018,0.089297496,40.4421301,-86.9112376,12.551509,0.0869956,-0.05445385,0.0122697055,-5.9246287,7.865208,-0.36311084,50.98125,-11.868751,-0.3375,0,
2022-04-15 10:36:07.844,-0.11388038,0.0058307424,-0.40800887,40.4422045,-86.9113555,13.339968,-0.40942097,-0.060624123,0.09040567,-6.2111692,7.7162547,-0.35234314,51.05625,-11.962501,-0.46875003,0,
2022-04-15 10:36:08.042,-0.1926254,-0.29269865,-0.21501942,40.4422045,-86.9113555,13.339968,-0.2120843,-0.32279873,-0.14082476,-4.881358,7.3812594,0.12143575,51.16875,-12.168751,-0.41250002,1,
