timestamp,accWrtEarthX,accWrtEarthY,accWrtEarthZ,lat,long,speed,accLiX,accLiY,accLiZ,accX,accY,accZ,magX,magY,magZ,anomalyStatus,
2022-04-15 10:24:17.993,0.0,0.0,0.0,40.4449959,-86.9445489,0.6671362,0.0,0.0,0.0,-2.516053,9.170493,2.099702,54.881252,-52.537502,-4.89375,0,
2022-04-15 10:24:18.192,-0.0207696,0.020124529,0.055629384,40.4449959,-86.9445489,0.6671362,0.051350355,-0.0059137344,0.03548479,-2.4921248,9.15135,1.9334008,54.91875,-52.275,-6.15,0,
2022-04-15 10:24:18.392,-0.037339993,-0.004933983,0.08521273,40.4449959,-86.9445489,0.6671362,0.08760595,-0.022965431,0.0218544,-2.6775684,9.2075815,1.8652053,54.54375,-52.425003,-6.2625003,0,
2022-04-15 10:24:18.591,0.006207848,2.5380496E-4,0.0655055,40.4449959,-86.9445489,0.6671362,0.06022024,0.022838593,0.013471961,-2.5674987,9.12503,2.2097716,55.331253,-53.662502,-4.59375,0,
2022-04-15 10:24:18.791,-0.049356997,0.03701851,0.012814195,40.4449965,-86.9445414,0.7787779,0.009738207,-0.03450489,0.051819563,-2.865405,9.018549,2.1690936,55.031254,-51.693752,-5.8875003,0,
2022-04-15 10:24:18.992,-0.02054206,0.045940105,-0.02762988,40.4449965,-86.9445414,0.7787779,-0.035761833,-0.0126543045,0.04309106,-2.5794628,9.180064,1.989632,54.675003,-51.3375,-7.6125,0,
2022-04-15 10:24:19.191,0.017325414,-0.022371463,-0.011735247,40.4449965,-86.9445414,0.7787779,-0.007886887,0.008112907,-0.028466582,-3.0005996,9.077172,1.9190438,54.693752,-52.0875,-6.5625005,0,
2022-04-15 10:24:19.392,0.035464853,-0.07939336,-0.1493381,40.4449965,-86.9445414,0.7787779,-0.12929249,-0.011419296,-0.11408758,-2.7996025,9.066405,1.9094725,54.787502,-52.256252,-6.8812504,0,
2022-04-15 10:24:19.592,0.04381827,-0.08820736,0.021188613,40.4449965,-86.9445414,0.7787779,0.0382967,0.019206047,-0.09118128,-3.1680973,8.87139,2.0219352,54.91875,-52.443752,-7.8375,0,
2022-04-15 10:24:19.791,0.01956433,-0.023630828,-0.1472925,40.4449979,-86.9445309,0.88865083,-0.13835073,-0.011638641,-0.057964444,-2.6871397,9.068798,1.9920249,54.018753,-51.375004,-7.05,0,
2022-04-15 10:24:19.991,0.0025679073,0.022518031,-0.14686869,40.4449979,-86.9445309,0.88865083,-0.14673185,-0.020654678,-0.011278987,-2.7110682,8.939586,2.0578275,53.5125,-51.787502,-6.80625,0,
2022-04-15 10:24:20.19,0.023720268,-0.02505052,0.17774077,40.4449979,-86.9445309,0.88865083,0.17478251,0.047024727,0.00465858,-2.7505496,9.18485,1.9178474,54.037502,-51.187504,-6.15,0,
2022-04-15 10:24:20.391,0.0086040255,-0.03652401,-0.022112746,40.4449979,-86.9445309,0.88865083,-0.013982534,-0.004190445,-0.04103577,-2.6572297,9.050852,1.8580267,53.79375,-51.862503,-7.0312505,0,
2022-04-15 10:24:20.59,-0.02051074,-0.0024165697,0.05016425,40.4449979,-86.9445309,0.88865083,0.051107645,-0.012888908,0.012840033,-3.1776686,9.226724,1.6797615,53.718754,-53.79375,-6.80625,0,
2022-04-15 10:24:20.791,0.013499798,-0.04762023,-0.019250352,40.4449992,-86.9445203,0.84252626,-0.010658741,-0.0021543503,-0.051983237,-2.725425,9.389436,1.625923,52.800003,-52.7625,-4.5750003,0,
2022-04-15 10:24:20.991,0.05802135,-0.030060649,-0.24406552,40.4449992,-86.9445203,0.84252626,-0.2361567,8.802414E-4,-0.08981836,-2.2767708,9.367901,1.922633,52.500004,-52.687504,-4.4437504,0,
2022-04-15 10:24:21.19,-0.02421198,0.096024334,0.2579731,40.4449992,-86.9445203,0.84252626,0.22739816,0.056822777,0.14634979,-2.5040889,9.104691,1.8329022,52.275,-52.18125,-3.5062501,0,
2022-04-15 10:24:21.39,-0.074641466,-0.008844145,0.073056206,40.4449992,-86.9445203,0.84252626,0.08523893,-0.05546856,0.02538383,-2.6249263,9.38824,1.9058832,51.881252,-52.74375,-3.6750002,0,
2022-04-15 10:24:21.59,-0.0034638848,0.07019573,0.05370724,40.4449992,-86.9445203,0.84252626,0.035302877,0.023316383,0.07767856,-2.416751,9.377472,1.8460627,51.43125,-53.11875,-3.05625,0,
2022-04-15 10:24:21.789,-0.0056683766,0.027737431,0.19443427,40.4449994,-86.94451,0.81986135,0.18188739,0.046996117,0.057571888,-2.6452653,9.341579,1.4991034,51.225002,-53.4,-1.4250001,0,
2022-04-15 10:24:21.992,0.007940531,-0.017596247,-2.565831E-4,40.4449994,-86.94451,0.81986135,0.003314972,0.0049333572,-0.01836896,-2.6213372,8.96471,2.833102,51.412502,-52.93125,0.41250002,0,
2022-04-15 10:24:22.189,0.021040114,0.02324595,-0.13665175,40.4449994,-86.94451,0.81986135,-0.13384938,-0.040854454,-0.00848639,-2.4586253,9.361918,1.8257236,48.018753,-56.287502,4.6687503,0,
2022-04-15 10:24:22.389,-0.026724624,0.048625592,0.025618661,40.4449994,-86.94451,0.81986135,0.022121906,-0.0076732635,0.056450963,-2.4095724,9.542577,1.2299109,49.18125,-53.79375,3.0187502,0,
2022-04-15 10:24:22.589,0.012154984,-0.027611025,0.023013338,40.4449994,-86.94451,0.81986135,0.023689032,0.012691498,-0.02678585,-2.6129622,9.491131,1.2215359,49.2,-53.812504,3.3000002,0,
2022-04-15 10:24:22.788,-0.007998059,-0.0050328407,-0.026195183,40.4449988,-86.9445007,0.7444201,-0.019219398,-0.018677711,-0.007565975,-2.3162522,9.382257,1.7407784,48.937504,-53.8875,4.5750003,0,
2022-04-15 10:24:22.989,0.045232408,-0.052481357,0.04591609,40.4449988,-86.9445007,0.7444201,0.037373304,0.051840782,-0.053144336,-2.5136602,9.340384,1.7706888,48.393753,-53.906254,4.51875,0,
2022-04-15 10:24:23.188,-0.0046385187,-0.029080033,-0.057951465,40.4449988,-86.9445007,0.7444201,-0.053503036,-0.019745827,-0.031193972,-1.4476577,9.913465,0.5419743,48.6375,-54.318752,4.8375,0,
2022-04-15 10:24:23.389,0.042140678,-0.14382292,0.03438248,40.4449988,-86.9445007,0.7444201,0.058659792,0.033229828,-0.13819492,-3.103491,9.089137,2.210968,48.281254,-54.54375,4.8,0,
2022-04-15 10:24:23.589,-0.009558137,0.020773724,-0.0015541106,40.4449988,-86.9445007,0.7444201,-0.0032389164,-0.0059480667,0.021896362,-2.5256243,9.223135,1.7778672,48.037502,-54.956253,4.9875,0,
2022-04-15 10:24:23.788,0.04375147,-4.4799037E-4,-0.12360525,40.4449989,-86.9444932,0.6167428,-0.1273675,-0.010052681,-0.029480815,-2.5184457,9.436096,1.4285151,48.54375,-54.843754,5.0062504,0,
2022-04-15 10:24:23.989,0.021676533,-0.06422705,0.05577378,40.4449988,-86.9444927,0.6161633,0.05745983,0.029369354,-0.05951059,-2.4789643,9.363115,1.3160524,48.093754,-54.862503,5.0625,0,
2022-04-15 10:24:24.188,0.038890578,-0.08721465,0.009087959,40.4449988,-86.9444927,0.6161633,0.014156103,0.023975372,-0.09179461,-2.4047868,9.424132,1.4321043,47.60625,-55.0875,5.08125,0,
2022-04-15 10:24:24.388,0.06154983,-0.10152462,-0.039986633,40.4449988,-86.9444927,0.6161633,-0.032058716,0.01859951,-0.119669795,-2.6225336,9.363115,1.7670995,47.662502,-54.675003,5.8125,0,
2022-04-15 10:24:24.588,-0.034260124,0.10637085,-0.06677129,40.4449988,-86.9444927,0.6161633,-0.07181764,-0.047412872,0.0976789,-2.5459633,9.281759,1.7754744,47.643753,-55.050003,6.43125,0,
2022-04-15 10:24:24.788,-0.036177248,0.11394118,-0.05844112,40.4449993,-86.944489,0.37255463,-0.066284895,-0.04455185,0.10643399,-2.5722845,9.247063,1.82692,47.68125,-54.6375,6.5437503,0,
2022-04-15 10:24:24.989,-0.022644931,0.08298695,-0.042874765,40.4449993,-86.944489,0.37255463,-0.050184727,-0.029301643,0.07655573,-2.501696,9.153743,1.7946169,46.65,-54.54375,5.9437504,0,
2022-04-15 10:24:25.188,-0.017586578,0.04951512,-0.016061876,40.4449993,-86.944489,0.37255463,-0.019748926,-0.01570034,0.04881084,-2.7158537,9.223135,1.7228323,46.59375,-54.693752,6.7500005,0,
2022-04-15 10:24:25.389,0.0017415732,0.021365486,-0.033599697,40.4449993,-86.944489,0.37255463,-0.035134554,-0.013007164,0.013595343,-2.7026932,9.29492,1.7874385,47.23125,-54.24375,7.2000003,0,
2022-04-15 10:24:25.588,0.0097644385,-0.010198731,-0.02485168,40.4449993,-86.944489,0.37255463,-0.023236036,-0.004553795,-0.016009808,-2.4885356,9.48156,1.5218352,46.5,-54.656254,6.6375003,0,
2022-04-15 10:24:25.788,0.03663437,-0.066073895,0.0055489186,40.4449991,-86.9444874,0.3648614,0.0059638023,0.02313137,-0.071888804,-2.62373,9.4839525,1.4297116,46.987503,-54.393753,6.9375005,0,
2022-04-15 10:24:25.987,0.023972904,-0.08593155,0.03300144,40.4449991,-86.9444874,0.3648614,0.039314985,0.023283958,-0.083427906,-2.400001,9.393025,1.4285151,45.300003,-55.518753,6.7500005,0,
2022-04-15 10:24:26.188,0.05163709,-0.14921746,0.029841293,40.4449991,-86.9444874,0.3648614,0.047384977,0.04325199,-0.14733183,-2.7409782,9.213564,2.1655045,46.48125,-54.7125,6.9,0,
2022-04-15 10:24:26.388,-0.043610338,0.09773179,-0.051460586,40.4449991,-86.9444874,0.3648614,-0.051263332,-0.049268723,0.09511161,-2.6309085,9.086744,1.7168503,46.21875,-54.300003,6.7500005,0,
2022-04-15 10:24:26.587,-0.049278475,0.21503672,-0.044757348,40.4449991,-86.9444874,0.3648614,-0.079202175,-0.040851593,0.20671368,-2.5806592,9.145369,1.9645073,46.03125,-54.506252,7.1625004,0,
2022-04-15 10:24:26.786,-0.011992045,0.009798985,-0.034641996,40.4449983,-86.9444865,0.3313383,-0.026219368,-0.026766777,0.0059984922,-2.6045876,9.105886,1.8077775,47.49375,-53.268753,7.425,0,
2022-04-15 10:24:26.986,-0.022331845,0.11697611,-0.015961185,40.4449983,-86.9444865,0.3313383,-0.04031086,-0.011440277,0.1126101,-2.8091738,9.194421,2.0135603,48.43125,-51.43125,8.025001,0,
2022-04-15 10:24:27.186,-0.002109612,-0.0020078174,-0.03186346,40.4449983,-86.9444865,0.3313383,-0.0248487,-0.018818855,-0.007221818,-2.650051,9.171689,1.7994026,47.550003,-52.29375,8.15625,0,
2022-04-15 10:24:27.386,-0.021156404,0.037504703,0.01205313,40.4449983,-86.9444865,0.3313383,0.00812459,-0.0068769455,0.04343009,-2.5435705,8.992228,1.9597218,48.093754,-52.050003,7.425,0,
2022-04-15 10:24:27.586,-0.009890635,-0.013139553,-0.03207603,40.4449983,-86.9444865,0.3313383,-0.02004385,-0.025743484,-0.015325189,-2.6476583,9.334401,1.698904,48.112503,-52.631252,6.3750005,0,
2022-04-15 10:24:27.786,0.030507822,0.08330143,-0.031620715,40.4449984,-86.9444867,0.26517278,-0.06326318,0.022434235,0.06606209,-2.4143581,9.165708,1.698904,47.287502,-54.468754,6.7500005,0,
2022-04-15 10:24:27.986,-0.006772302,-0.075215206,0.014324747,40.4449984,-86.9444867,0.26517278,0.03921485,-0.007229805,-0.06571388,-2.6739793,9.099904,2.0255244,47.287502,-54.693752,6.2625003,0,
2022-04-15 10:24:28.186,-0.045594044,0.09526262,0.031407233,40.4449984,-86.9444867,0.26517278,0.016244411,-0.0072727203,0.10873556,-2.8354948,9.041281,1.9597218,48.375004,-54.393753,6.3187504,0,
2022-04-15 10:24:28.385,0.024313016,-0.06525003,-0.047444012,40.4449984,-86.9444867,0.26517278,-0.035087347,-0.011802673,-0.07569146,-2.7182465,9.480363,1.4787644,46.3125,-56.081253,4.9500003,0,
2022-04-15 10:24:28.587,0.061353758,-0.06559362,0.012601315,40.4449984,-86.9444867,0.26517278,0.0036771297,0.047034264,-0.07745874,-2.6285157,9.241081,1.302892,45.9,-57.562504,4.1625004,0,
2022-04-15 10:24:28.785,0.08922444,-0.22618034,0.0056542214,40.4449995,-86.9444866,0.205808,0.019083261,0.029082298,-0.24070847,-2.8965118,9.55813,0.951147,47.775,-52.95,6.20625,0,
2022-04-15 10:24:28.987,0.11091356,-0.15901929,-0.042665824,40.4449998,-86.944487,0.18864323,-0.041626215,0.044006348,-0.18905032,-2.865405,9.19801,1.4153546,47.475002,-55.237503,6.1875005,0,
2022-04-15 10:24:29.186,0.0513979,-0.081405,-0.15915042,40.4449998,-86.944487,0.18864323,-0.14318871,-0.041282654,-0.11131084,-2.757728,9.267402,1.1820544,47.381252,-53.643753,6.95625,0,
2022-04-15 10:24:29.385,0.030460035,0.015652256,-0.06402429,40.4449998,-86.944487,0.18864323,-0.07255435,0.0011901855,-0.0025230646,-3.0520453,9.517452,1.2717853,47.4,-54.750004,6.0,0,
2022-04-15 10:24:29.584,0.0062839612,0.03650111,-0.10928391,40.4449998,-86.944487,0.18864323,-0.10631251,-0.041832924,0.016200185,-3.2889347,9.093923,1.3998013,48.43125,-53.268753,6.8250003,0,
2022-04-15 10:24:29.784,0.0101316795,0.08277579,-0.13655847,40.4449991,-86.944484,0.42894796,-0.1426115,-0.051520348,0.051091194,-3.2027931,9.282955,1.6630118,47.11875,-53.906254,7.0875,0,
2022-04-15 10:24:29.984,0.004575491,0.1796791,-0.14380524,40.4449991,-86.944484,0.42894796,-0.17634106,-0.043614388,0.14137566,-3.1022944,9.080762,1.6713866,47.23125,-53.4,7.3125005,0,
2022-04-15 10:24:30.184,-0.068396345,-0.0023722295,0.04350034,40.4449991,-86.944484,0.42894796,0.06976223,-0.030940056,0.027420998,-3.1669009,9.233903,1.7790636,45.787502,-53.025,6.8437505,0,
2022-04-15 10:24:30.384,-0.022760928,0.19630326,-0.05443271,40.4449991,-86.944484,0.42894796,-0.09451628,-0.01894474,0.180897,-2.9874392,9.010174,1.6965113,46.10625,-52.575,8.55,0,
2022-04-15 10:24:30.584,-0.030209726,0.017194435,-0.03674427,40.4449991,-86.944484,0.42894796,-0.018888235,-0.042850494,0.019117713,-2.9216363,9.2590275,1.6139588,45.393753,-52.74375,9.4875,0,
2022-04-15 10:24:30.784,-0.08252076,-0.011320617,0.108661324,40.444996,-86.9444823,0.6389757,0.13221979,0.0046167374,0.035238147,-2.9443684,9.066405,1.8580267,44.625,-52.95,10.03125,0,
2022-04-15 10:24:30.983,-0.017546685,0.092496194,-0.070199,40.444996,-86.9444823,0.6389757,-0.07284856,-0.041609764,0.082176924,-3.0616167,9.45165,1.463211,44.11875,-53.60625,10.462501,0,
2022-04-15 10:24:31.184,-0.01735888,0.079038836,0.020531777,40.444996,-86.9444823,0.6389757,-5.0377846E-4,0.01006794,0.08287585,-2.9515467,9.053245,1.6905292,44.23125,-53.718754,10.44375,0,
2022-04-15 10:24:31.383,-0.018297367,0.031015776,-0.012261853,40.444996,-86.9444823,0.6389757,-0.008529425,-0.01790142,0.032464027,-3.1190443,9.186047,1.7778672,43.800003,-53.7,10.856251,0,
2022-04-15 10:24:31.583,0.025730187,0.044244535,-0.057748977,40.444996,-86.9444823,0.6389757,-0.07217026,-0.013661385,0.023651361,-3.3966117,9.487542,1.5780666,42.84375,-53.831253,10.6875,0,
2022-04-15 10:24:31.783,0.067614354,-0.00272917,-0.10675326,40.4449908,-86.9444798,0.79618645,-0.120293856,-0.016699791,-0.03501308,-3.1441689,9.144172,0.9619147,41.831253,-54.61875,11.3625,0,
2022-04-15 10:24:31.982,0.12881495,-0.08789438,-0.101176515,40.4449908,-86.9444798,0.79618645,-0.12524629,-0.004149437,-0.13730097,-3.9373896,9.174082,0.5886344,41.41875,-54.075,12.187501,0,
2022-04-15 10:24:32.183,0.31554478,-0.2809805,-0.32239786,40.4449908,-86.9444798,0.79618645,-0.34722948,-0.06125927,-0.39766562,-3.6981075,9.129815,0.59581286,40.78125,-54.15,11.8125,0,
2022-04-15 10:24:32.383,0.49530858,-0.3330524,-0.6062957,40.4449908,-86.9444798,0.79618645,-0.6794605,-0.07178593,-0.5069804,-3.2350962,9.239884,0.47736812,39.15,-54.73125,11.38125,0,
2022-04-15 10:24:32.582,0.53060395,-0.52655065,-0.34879163,40.4449908,-86.9444798,0.79618645,-0.4388845,-0.003809929,-0.6984395,-3.5150564,9.09153,0.46899325,38.287502,-54.750004,12.6,0,
2022-04-15 10:24:32.782,0.28837067,-0.38691112,-0.23209779,40.4449816,-86.9444756,2.1379104,-0.26141453,-0.033345222,-0.46613064,-3.3690944,9.500702,0.22612174,37.162502,-55.125004,12.4875,0,
2022-04-15 10:24:32.982,0.17966264,-0.34338453,-0.015787795,40.4449816,-86.9444756,2.1379104,-0.012926817,0.025876999,-0.38678697,-4.0941195,9.224331,0.7968099,36.61875,-55.218754,12.0,0,
2022-04-15 10:24:33.183,0.26694745,0.043163005,-0.39724228,40.4449816,-86.9444756,2.1379104,-0.47304726,-0.05719471,-0.06229371,-2.8666015,9.32483,0.6197411,35.381252,-55.162502,11.38125,0,
2022-04-15 10:24:33.382,0.17727673,0.206396,-0.30101448,40.4449816,-86.9444756,2.1379104,-0.3815987,-0.059800148,0.12426764,-2.6703901,9.123833,0.7465607,33.300003,-55.74375,11.475,0,
2022-04-15 10:24:33.582,-0.16863959,-0.07821963,0.1573498,40.4449816,-86.9444756,2.1379104,0.24337888,-0.0040283203,-0.008189976,-2.8642087,9.440882,1.1066805,33.975002,-56.156254,11.1,0,
2022-04-15 10:24:33.781,0.0166227,0.17084248,-0.09883637,40.4449562,-86.9444665,3.5786688,-0.112306595,-0.040524483,0.15804142,-1.6462619,9.6275215,0.70588267,30.956251,-58.893753,14.062501,0,
2022-04-15 10:24:33.981,-0.4886182,-0.03139822,0.76167727,40.4449502,-86.944464,3.578671,0.855175,0.25141048,0.15923065,-2.8893332,9.242277,0.55513483,32.850002,-57.768753,12.337501,0,
2022-04-15 10:24:34.181,-0.33182666,-0.25597566,0.5160176,40.4449502,-86.944464,3.578671,0.6478574,0.055582047,-0.13819575,-2.5172493,9.343972,0.4223332,32.362503,-57.3375,11.64375,0,
2022-04-15 10:24:34.381,-0.0041154185,-0.008883297,-0.07458347,40.4449502,-86.944464,3.578671,-0.050750494,-0.054203987,-0.0120357275,-2.7696922,9.522238,0.6221339,32.756252,-56.062504,10.25625,0,
2022-04-15 10:24:34.581,-0.26384208,-0.31155425,0.39587203,40.4449502,-86.944464,3.578671,0.5253229,0.12797642,-0.17621362,-3.0352955,9.382257,0.951147,31.425001,-56.68125,10.837501,0,
2022-04-15 10:24:34.782,-0.09426663,0.008357316,0.18291809,40.4449205,-86.9444463,4.6289167,0.14481258,0.12353611,0.07863343,-3.199204,8.325827,1.8903298,32.193752,-56.756252,9.65625,0,
2022-04-15 10:24:34.981,-0.43673536,0.22436805,-0.4058208,40.4449205,-86.9444463,4.6289167,0.0040569305,-0.5861778,0.24929589,-2.6452653,9.839287,1.9178474,32.475002,-57.187504,9.58125,0,
2022-04-15 10:24:35.181,-0.56511074,1.1355327,0.46012646,40.4449205,-86.9444463,4.6289167,0.3162608,0.09104252,1.3085073,-2.7266214,8.695518,1.4201403,32.550003,-56.2125,9.50625,0,
2022-04-15 10:24:35.382,-0.4648301,0.77258873,0.2302536,40.4449205,-86.9444463,4.6289167,0.19001365,-0.066833496,0.9085182,-2.9587252,8.908479,2.0315065,32.90625,-56.775,9.225,0,
2022-04-15 10:24:35.581,-0.8573024,0.54257715,0.035464913,40.4449205,-86.9444463,4.6289167,0.47127175,-0.4756403,0.7630757,-2.9575288,9.677772,1.869991,32.8875,-56.4,9.01875,0,
2022-04-15 10:24:35.781,-0.07470195,0.7402441,0.23945665,40.4448797,-86.9444211,4.7496676,-0.06179619,0.12789345,0.76857376,-2.3928227,8.71466,2.0733807,32.60625,-56.41875,9.731251,0,
2022-04-15 10:24:35.981,-0.34952804,0.5386374,0.31987423,40.4448797,-86.9444211,4.7496676,0.26183486,0.055416107,0.66557586,-2.6691937,8.891729,1.7790636,33.1875,-56.756252,9.58125,0,
2022-04-15 10:24:36.181,-0.46557936,0.18767571,-0.2024073,40.4449205,-86.9444463,4.7496676,0.2120626,-0.413661,0.27725255,-2.9503503,9.343972,1.8029919,31.95,-58.0875,11.53125,0,
2022-04-15 10:24:36.381,-0.010069542,0.24693224,0.15039997,40.4449205,-86.9444463,4.7496676,-0.021249771,0.113503456,0.26525927,-3.0113673,9.152547,2.2037897,33.581253,-58.55625,14.475,0,
2022-04-15 10:24:36.581,-0.19280034,0.045372844,0.10105717,40.4449205,-86.9444463,4.7496676,0.15297413,0.057944298,0.15061402,-5.2055855,9.512667,2.32702,34.612503,-58.8375,10.1625,0,
2022-04-15 10:24:36.781,0.53225446,1.190562,0.20073651,40.4448393,-86.9443949,4.7100086,-0.95468473,0.21812248,0.88432324,-3.7567315,8.2253275,2.4538395,34.8375,-58.575,10.575001,0,
2022-04-15 10:24:36.98,0.5732869,1.0419722,-0.77890915,40.4448393,-86.9443949,4.7100086,-1.2005825,-0.42468262,0.6319094,-3.1190443,8.919247,1.8281165,33.9375,-58.55625,13.106251,0,
2022-04-15 10:24:37.18,-0.19291651,0.36146337,-0.24194969,40.4448393,-86.9443949,4.7100086,-0.03965521,-0.31389332,0.3554021,-4.260421,9.160921,1.9645073,32.86875,-58.275,13.743751,1,
2022-04-15 10:24:37.38,0.5204352,0.64810824,0.021360263,40.4448393,-86.9443949,4.7100086,-0.6935766,0.16711235,0.42705786,-3.1369905,8.781659,2.376073,32.775,-58.74375,13.687501,0,
2022-04-15 10:24:37.58,0.2867863,0.84211695,-0.37192196,40.4448393,-86.9443949,4.7100086,-0.69119453,-0.27320004,0.6142843,-2.9790642,9.056833,2.0889342,31.087502,-58.8375,13.406251,0,
2022-04-15 10:24:37.78,-0.013924822,0.6817818,-0.12322319,40.4448029,-86.9443677,4.440033,-0.2905059,-0.14806366,0.61146367,-3.2075787,8.4502535,1.5828521,30.69375,-57.99375,13.368751,0,
2022-04-15 10:24:37.978,0.12037582,0.13766162,-0.6262585,40.4448029,-86.9443677,4.440033,-0.3436277,-0.5537338,-0.030653477,-3.674179,9.334401,1.8448663,30.375002,-57.300003,11.775001,0,
2022-04-15 10:24:38.178,0.17555681,0.13367297,-0.13529408,40.4448029,-86.9443677,4.440033,-0.23849082,-0.094166756,0.03532529,-3.9948175,9.230313,1.288535,29.475,-57.693752,11.681251,0,
2022-04-15 10:24:38.378,0.7398833,0.50258756,-0.30123186,40.4448029,-86.9443677,4.440033,-0.9072633,0.14309788,0.21716022,-2.678765,8.283952,0.9296116,29.79375,-57.2625,12.075001,0,
2022-04-15 10:24:38.578,0.5183096,-0.09913921,-0.9643982,40.4448029,-86.9443677,4.440033,-0.57821774,-0.82930946,-0.43179572,-4.188636,9.428918,1.4440684,29.5125,-57.956253,11.681251,0,
2022-04-15 10:24:38.778,0.42284858,-0.084809124,-0.26068673,40.4447714,-86.944335,4.529991,-0.3668356,-0.20200825,-0.28031301,-4.031906,8.974281,1.1976078,27.975,-58.7625,11.6625,0,
2022-04-15 10:24:38.978,1.2943021,0.4246046,-0.105105,40.4447679,-86.9443295,4.52998,-1.3340561,0.28479004,-0.0757817,-3.0664022,8.084151,1.1904292,28.312502,-58.36875,11.325001,0,
2022-04-15 10:24:39.178,0.44406635,0.004163772,-0.74693215,40.4447679,-86.9443295,4.52998,-0.37465024,-0.73043346,-0.2849983,-4.482953,9.265009,1.3471591,27.13125,-57.562504,9.262501,0,
2022-04-15 10:24:39.378,0.79689914,0.06383473,-0.4347034,40.4447679,-86.9443295,4.52998,-0.7909217,-0.30501938,-0.33090198,-3.8416767,8.866604,1.7324036,27.056252,-57.43125,8.85,0,
2022-04-15 10:24:39.577,1.2205298,0.6645571,-0.1656483,40.4447679,-86.9443295,4.52998,-1.3900919,0.100325584,0.1278578,-3.5234313,8.553144,1.1569297,26.79375,-56.643753,7.7812505,0,
2022-04-15 10:24:39.777,0.3171929,0.07700326,-0.3938574,40.4447487,-86.9442838,5.229944,-0.24349785,-0.42843628,-0.13717008,-4.622335,8.938389,1.5720844,25.987501,-56.98125,7.2000003,0,
2022-04-15 10:24:39.977,0.7648666,0.32958138,-0.03085984,40.4447487,-86.9442838,5.229944,-0.7958877,-0.233325,-0.081971645,-4.726423,8.640483,1.6677973,25.893751,-57.187504,7.1250005,0,
2022-04-15 10:24:40.179,1.191856,0.61318356,-0.19170308,40.4447487,-86.9442838,5.229944,-1.3276901,-0.26469898,0.020929813,-4.173083,8.916255,1.4877375,25.875002,-57.24375,7.05,0,
2022-04-15 10:24:40.377,0.7238636,0.46636143,-0.19114867,40.4447487,-86.9442838,5.229944,-0.8208134,-0.31654072,0.063848376,-4.319045,8.749356,1.6833507,25.800001,-57.61875,7.1062503,0,
2022-04-15 10:24:40.577,0.985621,0.6214373,-0.27073824,40.4447487,-86.9442838,5.229944,-1.1264801,-0.38705444,0.11028814,-3.9248273,8.410173,1.2035898,25.556252,-57.843754,6.80625,0,
2022-04-15 10:24:40.777,0.5506241,0.2796366,-0.1441912,40.4447255,-86.9442226,5.564306,-0.534765,-0.3366785,-0.053372145,-4.9513483,8.758329,1.8652053,25.425001,-58.068752,6.61875,0,
2022-04-15 10:24:40.977,0.58708906,0.5022284,-0.18918392,40.4447255,-86.9442226,5.564306,-0.7464819,-0.17910862,0.20828426,-3.5910287,8.718249,1.4907285,25.087502,-58.350002,6.0375004,0,
2022-04-15 10:24:41.177,0.21004024,0.21669605,0.03847171,40.4447255,-86.9442226,5.564306,-0.28160143,-0.0471735,0.10502112,-4.24726,8.481958,1.7395821,24.7875,-58.500004,5.4375,0,
2022-04-15 10:24:41.376,0.19239411,0.29272157,-0.091980234,40.4447255,-86.9442226,5.564306,-0.25032473,-0.21246052,0.1528393,-4.408776,8.425727,1.5756737,24.750002,-58.350002,4.4812503,0,
2022-04-15 10:24:41.577,0.29776353,0.2751741,0.0655189,40.4447255,-86.9442226,5.564306,-0.38753462,-0.024147987,0.13382983,-4.086343,8.8014,1.7449659,24.281252,-58.36875,3.6000001,0,
2022-04-15 10:24:41.776,-0.16964719,0.084887,0.017918121,40.4447146,-86.9441542,6.033164,0.11954403,0.008273125,0.14814794,-3.9517467,8.68475,1.931606,23.8125,-58.425003,2.5125,0,
2022-04-15 10:24:41.976,-0.030722104,0.13034837,-0.1473245,40.4447146,-86.9441542,6.033164,-0.007871151,-0.16571999,0.11006355,-3.8985064,9.332606,1.4380864,23.362501,-58.2,1.48125,0,
2022-04-15 10:24:42.176,-0.19826883,-0.05008516,0.22612381,40.4447146,-86.9441542,6.033164,0.22534084,0.19640255,0.05998814,-3.484548,9.269794,1.6618153,23.0625,-58.031254,0.61875004,0,
2022-04-15 10:24:42.376,-0.047263168,0.14592218,-0.019777926,40.4447146,-86.9441542,6.033164,0.004388809,-0.04628086,0.14750278,-4.3651066,8.632108,1.314856,22.6875,-57.881252,-0.26250002,0,
2022-04-15 10:24:42.576,0.1003214,0.011480082,-0.14637631,40.4447146,-86.9441542,6.033164,-0.120930195,-0.121694565,-0.04678166,-3.225525,9.047262,1.6115661,22.331251,-57.862503,-1.03125,0,
2022-04-15 10:24:42.775,-0.1861919,0.06741067,0.071564674,40.4447164,-86.9440806,6.51591,0.11645675,0.10532284,0.14027846,-3.6137605,8.730213,0.9984053,22.06875,-57.843754,-1.95,0,
2022-04-15 10:24:42.976,0.038066372,0.107075036,-0.11238429,40.4447164,-86.9440806,6.51591,-0.09383273,-0.10827541,0.0708251,-3.2715867,9.196814,1.4362918,21.84375,-57.787502,-2.7,0,
2022-04-15 10:24:43.175,-0.68340397,-0.44123137,-0.22335513,40.4447164,-86.9440806,6.51591,0.8225658,-0.0015439987,-0.18707466,-3.7477584,9.047262,1.9591235,21.73125,-57.91875,-3.3375,0,
2022-04-15 10:24:43.376,-0.0773336,0.1377334,0.28538126,40.4447164,-86.9440806,6.51591,0.14988112,0.20896721,0.20065343,-2.6781666,8.606385,1.5511472,21.69375,-57.881252,-3.99375,0,
2022-04-15 10:24:43.576,-0.9286661,0.054135084,-0.11786233,40.4447164,-86.9440806,6.51591,0.85967374,-0.14273167,0.3461671,-3.5330026,9.057432,2.5082762,21.6375,-57.881252,-4.6687503,0,
2022-04-15 10:24:43.775,-0.9019668,0.20800777,0.028207645,40.4447251,-86.9440043,6.941527,0.7706425,-0.11325073,0.5008906,-3.281158,8.879765,2.2061825,21.675001,-57.825,-5.4,0,
2022-04-15 10:24:43.976,-0.3479647,0.48228908,0.37140745,40.4447251,-86.9440043,6.941527,0.2635994,0.13599014,0.6353327,-2.7332017,8.78465,2.2223341,21.75,-57.7125,-6.15,0,
2022-04-15 10:24:44.175,-1.0040157,0.4370014,0.09315202,40.4447251,-86.9440043,6.941527,0.7730315,-0.2505598,0.73982227,-3.2416766,9.397213,2.6189444,21.7875,-57.750004,-6.8625,0,
2022-04-15 10:24:44.375,-0.6194805,0.86863106,0.738971,40.4447251,-86.9440043,6.941527,0.4066198,0.31735802,1.1909233,-2.885744,8.830712,2.8719854,21.768751,-57.787502,-7.4062505,0,
2022-04-15 10:24:44.575,-0.5574508,1.0982792,0.6375408,40.4447251,-86.9440043,6.941527,0.14918017,0.17980671,1.3670559,-3.3379877,9.060423,3.484548,21.7875,-57.9,-7.9687505,0,
2022-04-15 10:24:44.776,-0.62640053,1.3019499,0.4695717,40.4447388,-86.9439255,6.5977507,0.18701982,-0.038686752,1.5071417,-2.958127,9.048459,3.0681968,21.768751,-57.862503,-8.45625,0,
2022-04-15 10:24:44.975,-0.81685364,1.3815347,0.8139785,40.4447388,-86.9439255,6.5977507,0.43258166,0.16779232,1.738726,-2.8055844,8.917452,3.0622149,21.768751,-57.937504,-8.625,0,
2022-04-15 10:24:45.174,-0.7636058,0.83991313,0.41497648,40.4447388,-86.9439255,6.5977507,0.47699404,-0.113656044,1.1046774,-2.737389,9.09811,3.522235,21.73125,-57.91875,-8.7375,0,
2022-04-15 10:24:45.374,-0.8927193,0.7118637,0.3533291,40.4447388,-86.9439255,6.5977507,0.6113608,-0.12187767,1.0197661,-2.9479575,8.870791,3.766901,21.618752,-58.0125,-8.94375,0,
2022-04-15 10:24:45.574,-0.36704943,0.73737216,0.6143148,40.4447388,-86.9439255,6.5977507,0.28664637,0.1600399,0.9736769,-2.0434706,8.520244,3.5156546,21.487501,-58.162502,-8.887501,0,
2022-04-15 10:24:45.774,-0.5774609,0.31934685,-0.07075456,40.4447567,-86.9438637,5.174092,0.36496425,-0.36222172,0.41957855,-2.7338,9.302098,3.3894334,21.46875,-58.143753,-8.868751,0,
2022-04-15 10:24:45.974,-0.36693794,0.3299631,0.3127482,40.4447567,-86.9438637,5.174092,0.28319073,0.06391239,0.50699973,-2.5932214,8.715857,3.6412778,21.337502,-58.10625,-8.85,0,
2022-04-15 10:24:46.174,-0.15679571,0.29049027,0.22313157,40.4447567,-86.9438637,5.174092,0.08791113,0.06298065,0.383487,-2.5429723,8.671589,3.7178483,21.243752,-57.99375,-8.868751,0,
2022-04-15 10:24:46.374,-0.21210808,0.34391943,-0.05654329,40.4447567,-86.9438637,5.174092,0.029215574,-0.23653889,0.33115458,-2.0344975,8.759525,3.7800615,21.1875,-57.99375,-8.793751,0,
2022-04-15 10:24:46.573,-0.405113,-0.0029631704,0.17148265,40.4447567,-86.9438637,5.174092,0.40242457,0.041578293,0.17279267,-2.8552356,9.079565,3.7022948,21.056252,-57.975002,-8.925,0,
2022-04-15 10:24:46.773,0.099465355,0.13867548,0.112835936,40.4447704,-86.9438179,3.2362566,-0.080666065,0.124897,0.1405344,-2.2528424,8.849854,3.1345978,21.09375,-57.937504,-9.13125,0,
2022-04-15 10:24:46.972,0.015415572,-0.31170028,-0.09292762,40.4447704,-86.9438179,3.2362566,0.07330823,-0.021180153,-0.31655574,-2.7756743,9.09153,2.9946175,21.0,-58.18125,-9.375,0,
2022-04-15 10:24:47.172,0.22723758,-0.46857023,0.052050717,40.4447704,-86.9438179,3.2362566,0.059307814,0.19531155,-0.4819131,-2.3222344,8.969496,2.3605196,21.393751,-57.7125,-9.6,0,
2022-04-15 10:24:47.372,0.3602624,-0.6001619,-0.2771481,40.4447704,-86.9438179,3.2362566,-0.21407413,0.0730257,-0.71807647,-2.382055,9.114262,2.2779672,21.018751,-57.768753,-9.5625,0,
2022-04-15 10:24:47.572,0.40899062,-0.9542355,0.024324045,40.4447704,-86.9438179,3.2362566,0.04701996,0.25449848,-1.0057087,-2.8725836,8.973084,2.0087745,20.8875,-57.562504,-9.337501,0,
2022-04-15 10:24:47.772,0.57904375,-1.0797107,-0.22495985,40.4447755,-86.9437934,2.0232983,-0.14154744,0.19266987,-1.2225041,-2.7984061,9.1681,1.9154545,21.862501,-58.10625,-9.01875,0,
2022-04-15 10:24:47.973,0.7314285,-1.0964291,-0.3267929,40.4447755,-86.9437934,2.0232983,-0.31435084,0.24063015,-1.2989298,-2.644069,8.9348,1.9154545,20.925001,-58.4625,-9.450001,0,
2022-04-15 10:24:48.172,0.3973748,-0.7803494,-0.07683495,40.4447755,-86.9437934,2.0232983,0.0151331425,0.18324566,-0.8596206,-2.6392834,9.274581,1.6977077,21.31875,-58.331253,-9.337501,0,
2022-04-15 10:24:48.372,0.27264273,-0.5038076,-0.15471011,40.4447755,-86.9437934,2.0232983,-0.049217224,0.13694763,-0.5752516,-2.644069,9.3308115,1.3770695,21.675001,-57.675003,-9.731251,0,
2022-04-15 10:24:48.573,0.2514166,-0.49642262,-0.06436458,40.4447755,-86.9437934,2.0232983,0.0062026978,0.111289024,-0.548967,-2.6153553,9.439685,1.5098711,21.375,-57.05625,-8.700001,0,
2022-04-15 10:24:48.772,0.18166178,-0.36400926,-0.07970475,40.4447812,-86.9437771,1.8611451,-0.039811373,0.07251644,-0.40621793,-2.4526432,9.268599,1.7682959,21.2625,-57.393753,-8.512501,0,
2022-04-15 10:24:48.974,0.08760318,-0.23586865,0.17402312,40.4447812,-86.9437771,1.8611451,0.18547201,0.116438866,-0.21362233,-2.635694,9.174082,1.8305093,21.69375,-57.2625,-9.075001,0,
2022-04-15 10:24:49.171,0.06903726,-0.11308326,-0.120355755,40.4447812,-86.9437771,1.8611451,-0.10439992,0.023962975,-0.14340818,-1.7551354,9.2590275,1.7048861,21.73125,-57.80625,-8.53125,0,
2022-04-15 10:24:49.372,0.0033403258,-0.029592333,-0.027374346,40.4447812,-86.9437771,1.8611451,-0.019612074,-0.0075359344,-0.034565806,-1.4931214,9.196814,1.8771694,20.925001,-58.575,-8.793751,0,
2022-04-15 10:24:49.572,0.088036545,-0.014864966,0.540509,40.4447812,-86.9437771,1.8611451,0.5279728,0.14187336,0.035185575,-2.6895328,9.238688,1.3244274,21.337502,-57.54375,-7.9125004,0,
2022-04-15 10:24:49.771,0.053868346,-0.12276371,-0.022798179,40.4447842,-86.943756,1.948367,-0.009476662,0.030957222,-0.13207698,-1.6654046,9.402596,1.1617154,20.8875,-57.881252,-6.5062504,0,
2022-04-15 10:24:49.972,0.108987585,-0.11789105,-0.053410824,40.4447842,-86.943756,1.948367,-0.04614401,0.07549095,-0.14422607,-2.2660031,9.847662,1.0827522,21.056252,-57.562504,-5.7375,0,
2022-04-15 10:24:50.171,0.032966252,-0.2946993,0.3877542,40.4447842,-86.943756,1.948367,0.41264212,0.095412254,-0.24271536,-2.0697916,9.546165,1.2658032,21.675001,-57.975002,-5.175,0,
2022-04-15 10:24:50.372,0.09027829,-0.07921404,-0.009381985,40.4447842,-86.943756,1.948367,-0.0048499107,0.07429886,-0.09470594,-1.7431713,9.454042,0.7106683,20.94375,-58.443752,-4.2000003,0,
2022-04-15 10:24:50.571,0.036082204,-0.15340483,0.076288864,40.4447842,-86.943756,1.948367,0.08411145,0.035308838,-0.14944398,-1.8484555,10.036695,0.9738788,21.28125,-58.218754,-2.4562502,0,
2022-04-15 10:24:50.772,0.10336088,-0.12693904,0.403302,40.4447834,-86.9437288,2.5216715,0.3915857,0.14513302,-0.12266427,-1.7503498,9.635897,0.4989035,21.7875,-57.9,-1.25625,0,
2022-04-15 10:24:50.972,-0.02306625,0.011004191,0.33601364,40.4447834,-86.9437288,2.5216715,0.30810726,0.12911034,0.04425764,-1.7838492,9.662218,0.8602197,22.29375,-58.218754,0.26250002,0,
2022-04-15 10:24:51.171,-0.14472382,-0.25198388,-0.031248922,40.4447834,-86.9437288,2.5216715,0.015156865,-0.16718578,-0.2392416,-0.89371926,9.891929,0.5168497,22.575,-58.725002,0.39375,0,
2022-04-15 10:24:51.372,0.14327571,-0.0038436456,0.49002823,40.4447834,-86.9437288,2.5216715,0.4420526,0.25511742,-0.013228059,-1.5720844,9.316455,0.27756742,23.362501,-58.350002,1.5187501,0,
2022-04-15 10:24:51.572,-0.16385767,-0.131422,0.31942624,40.4447834,-86.9437288,2.5216715,0.37508357,-0.017228127,-0.071900785,-2.4179473,10.083355,0.5706882,24.750002,-58.10625,2.11875,0,
2022-04-15 10:24:51.772,0.42159432,-0.20100115,-0.15528187,40.4447745,-86.943696,3.5298893,-0.33776093,0.15988445,-0.32032824,-2.9599216,9.902697,0.49052864,24.88125,-58.275,3.6000001,0,
2022-04-15 10:24:51.971,-0.056606907,0.044101443,-0.09098421,40.4447745,-86.943696,3.5298893,-0.06613517,-0.082203865,0.047917306,-1.4644074,10.169497,0.424726,25.781252,-58.406254,4.78125,0,
2022-04-15 10:24:52.171,0.14620733,-0.27612013,-0.09824499,40.4447745,-86.943696,3.5298893,-0.11976886,0.04183483,-0.30195406,-1.6510476,9.71127,0.5766702,26.025002,-58.10625,6.05625,0,
2022-04-15 10:24:52.37,-0.3620512,-0.04657308,0.72153413,40.4447745,-86.943696,3.5298893,0.789392,0.15824223,0.07537454,-2.4394827,9.503095,0.41515473,26.812502,-58.331253,6.3187504,0,
2022-04-15 10:24:52.57,0.1665231,-0.116052926,0.07193045,40.4447745,-86.943696,3.5298893,0.003084898,0.16806507,-0.13459882,-1.3830515,9.527023,0.5312066,27.618752,-58.162502,6.3562503,0,
2022-04-15 10:24:52.77,-0.10840977,-0.14572448,-0.054119244,40.4447491,-86.9436562,4.7842426,0.059022903,-0.13920593,-0.11425933,-2.684747,9.809377,0.45822555,28.25625,-57.843754,7.9125004,0,
2022-04-15 10:24:52.969,-0.120455205,-0.41110313,0.6910486,40.4447491,-86.9436562,4.7842426,0.66522515,0.3254137,-0.33562618,-2.853441,9.677772,0.35653058,28.5375,-58.143753,8.418751,0,
2022-04-15 10:24:53.169,0.029215619,-0.27741814,0.5359857,40.4447491,-86.9436562,4.7842426,0.47568834,0.25401974,-0.2725612,-2.5579274,9.471989,0.0526421,29.737501,-57.318752,8.53125,0,
2022-04-15 10:24:53.368,0.030340869,-0.31746277,-0.39988124,40.4447437,-86.9436513,4.7836905,-0.38031316,-0.13746643,-0.3131662,-1.2598212,10.484153,-0.148355,30.675001,-57.037502,8.887501,0,
2022-04-15 10:24:53.569,-0.15477423,-0.5315224,0.63651276,40.4447437,-86.9436513,4.7836905,0.6896881,0.22719479,-0.42933962,-2.989832,9.917053,0.55752766,30.618752,-57.15,8.45625,0,
2022-04-15 10:24:53.768,-0.18742342,-0.18140097,0.65246004,40.4447016,-86.9436143,6.4006896,0.66115963,0.21364784,-0.10469213,-2.6231318,9.150752,0.26261228,30.993752,-57.506252,8.85,0,
2022-04-15 10:24:53.969,-0.034091357,-0.2785205,-0.050631776,40.4447016,-86.9436143,6.4006896,0.016553879,-0.102786064,-0.26544386,-2.2695923,9.900902,0.3487539,30.806252,-57.675003,8.83125,0,
2022-04-15 10:24:54.168,-0.18171465,-0.01768097,0.4841069,40.4447016,-86.9436143,6.4006896,0.48805547,0.16587925,0.044477582,-2.9336007,9.266804,0.13040884,30.862501,-57.73125,8.868751,0,
2022-04-15 10:24:54.369,0.037784655,-0.0992471,0.09971396,40.4447016,-86.9436143,6.4006896,0.077873945,0.066737175,-0.103452116,-2.6452653,9.824331,0.22253251,31.0125,-57.693752,8.925,0,
2022-04-15 10:24:54.568,0.24575429,-0.10296002,-0.3449489,40.4447016,-86.9436143,6.4006896,-0.4031844,0.0022239685,-0.16559908,-2.2103698,9.552148,0.28295127,31.312502,-57.54375,9.1875,0,
2022-04-15 10:24:54.768,-0.021502633,-0.15901178,0.2169154,40.4446397,-86.9435694,8.096067,0.21447301,0.084872246,-0.13999085,-2.8319056,9.5252285,0.28594232,31.575,-57.300003,9.13125,0,
2022-04-15 10:24:54.967,-0.0028872145,-0.028494515,-0.05800097,40.4446397,-86.9435694,8.096067,-0.04079318,-0.042518616,-0.026692122,-2.925824,9.325428,0.062213387,31.85625,-57.075,8.962501,0,
2022-04-15 10:24:55.167,0.15818232,0.061636962,-0.37763312,40.4446397,-86.9435694,8.096067,-0.40501428,-0.085635185,0.0075897574,-2.9946175,9.319446,0.06999006,32.11875,-57.05625,9.1125,0,
2022-04-15 10:24:55.367,0.043180995,0.03294102,-0.24726087,40.4446397,-86.9435694,8.096067,-0.20254898,-0.15140152,-0.011795491,-2.5950162,9.047262,1.2047862,32.268753,-56.925003,9.20625,0,
2022-04-15 10:24:55.567,-0.08381748,0.5965437,-0.13396874,40.4446397,-86.9435694,8.096067,-0.20420456,-0.06159401,0.57908905,-3.0436704,9.112467,0.8063812,32.71875,-56.475002,9.1125,0,
2022-04-15 10:24:55.768,0.036659963,0.28879586,-0.21099168,40.4445643,-86.9435206,9.758942,-0.2502327,-0.09337807,0.2406837,-3.1286156,9.282357,0.93679005,32.9625,-56.250004,9.150001,0,
2022-04-15 10:24:55.968,4.2470545E-4,0.15179561,-0.17530584,40.4445643,-86.9435206,9.758942,-0.16120172,-0.10871792,0.12636712,-3.1286156,9.282357,0.93679005,33.131252,-56.2125,9.1875,0,
2022-04-15 10:24:56.168,0.039880283,-0.0068049505,-0.09033253,40.4445643,-86.9435206,9.758942,-0.0894649,-0.034617424,-0.02437985,-3.0095727,9.203992,0.59641105,33.1875,-56.23125,9.243751,0,
2022-04-15 10:24:56.368,0.1658681,0.13636118,-0.13972537,40.4445643,-86.9435206,9.758942,-0.24306202,0.044335365,0.067712665,-3.097509,9.194421,0.58564335,33.225002,-56.30625,9.20625,0,
2022-04-15 10:24:56.566,-0.10313308,0.031671252,-0.1800016,40.4445643,-86.9435206,9.758942,-0.06705308,-0.19383526,0.04440558,-2.8325038,9.090333,0.863809,33.09375,-56.475002,9.168751,0,
2022-04-15 10:24:56.767,-0.016962651,0.035528243,-0.019966489,40.4444803,-86.9434614,11.078707,-0.0118153095,-0.023449898,0.035484493,-2.629712,9.313464,1.422533,32.756252,-56.737503,9.09375,0,
2022-04-15 10:24:56.967,-0.20694116,0.3596235,0.11488305,40.4444803,-86.9434614,11.078707,0.13051343,-0.019342422,0.40980965,-2.725425,9.57787,0.72502524,32.381252,-57.000004,9.0375,0,
2022-04-15 10:24:57.169,0.019881167,0.04833466,0.009905215,40.4444803,-86.9434614,11.078707,-0.016358376,0.02898407,0.041496277,-2.696711,9.354142,0.63828546,32.025,-57.24375,9.243751,0,
2022-04-15 10:24:57.366,-0.055891976,0.03311312,0.0063530905,40.4444803,-86.9434614,11.078707,0.034893274,-0.028595924,0.04717505,-2.6428726,9.588638,1.7054844,31.650002,-57.581253,9.337501,0,
2022-04-15 10:24:57.566,-0.039849307,0.2047999,0.10741456,40.4444803,-86.9434614,11.078707,0.04892373,0.080804825,0.21481597,-2.9940193,10.00499,0.7531409,31.2,-57.881252,9.28125,0,
2022-04-15 10:24:57.766,-0.025028909,0.012744144,0.0748335,40.4443871,-86.9433938,12.165901,0.054091692,0.049702644,0.0315063,-2.8552356,9.129216,1.5714862,30.843752,-58.068752,9.356251,0,
2022-04-15 10:24:57.966,-0.12082646,-0.06380795,0.0022044824,40.4443871,-86.9433938,12.165901,0.11879659,-0.0630846,-0.024146438,-2.8552356,9.129216,1.5714862,30.468752,-58.2,9.431251,0,
2022-04-15 10:24:58.166,-0.111805096,0.022503618,-0.004819824,40.4443871,-86.9433938,12.165901,0.07206273,-0.07375336,0.048963547,-2.4616163,9.430114,1.2765709,30.337502,-58.162502,9.637501,0,
2022-04-15 10:24:58.366,-0.0056190155,0.15550576,0.10145733,40.4443871,-86.9433938,12.165901,-0.0038974285,0.08634472,0.16442811,-3.1250265,9.492328,1.7090735,30.337502,-58.031254,9.76875,0,
2022-04-15 10:24:58.566,0.07113049,0.062282756,0.047436457,40.4443871,-86.9433938,12.165901,-0.05376935,0.081851006,0.039977193,-3.1920254,9.116056,1.0007981,30.487501,-57.843754,9.918751,0,
2022-04-15 10:24:58.766,0.110297985,-0.062202252,-0.019950615,40.4442835,-86.9433221,13.202295,-0.07130551,0.06411266,-0.085075736,-2.0057836,9.477372,0.81954175,30.54375,-57.73125,9.975,0,
2022-04-15 10:24:58.966,-0.055641502,-0.02770618,-0.14021386,40.4442835,-86.9433221,13.202295,-0.041888952,-0.14476967,-0.028470993,-2.5124638,9.308679,1.1288141,30.581251,-57.525,10.012501,0,
2022-04-15 10:24:59.165,-0.10598279,-0.007256111,0.045973316,40.4442835,-86.9433221,13.202295,0.107387304,-0.034565926,0.02591741,-2.589034,9.288938,0.9607183,30.6,-57.375004,10.181251,0,
2022-04-15 10:24:59.365,0.005259839,0.010343513,0.02035637,40.4442835,-86.9433221,13.202295,0.005842924,0.019843102,0.011006713,-2.4179473,8.804989,1.1252248,30.618752,-57.3375,10.293751,0,
2022-04-15 10:24:59.565,0.045614846,0.068641014,-0.08598258,40.4442835,-86.9433221,13.202295,-0.10080361,-0.050356865,0.038576245,-3.4486556,9.463016,1.1754742,30.712502,-57.281254,10.462501,0,
2022-04-15 10:24:59.766,0.013956599,0.025376897,0.0038434616,40.4441707,-86.943249,14.305239,-0.017251015,0.01050663,0.02110827,-2.416751,8.771489,1.8323039,30.675001,-57.187504,10.481251,0,
2022-04-15 10:24:59.966,-0.16745685,0.04202717,0.095763355,40.4441707,-86.943249,14.305239,0.16829729,-0.014264107,0.10223138,-2.416751,8.771489,1.8323039,30.6,-57.225002,10.59375,0,
2022-04-15 10:25:00.165,-0.04764483,0.11122058,0.08857786,40.4441707,-86.943249,14.305239,0.044680834,0.055749893,0.13183951,-3.1453655,9.623335,1.4470595,30.6375,-57.206253,10.668751,0,
2022-04-15 10:25:00.364,-0.0054778215,-0.031978432,-0.14000776,40.4441707,-86.943249,14.305239,-0.060679197,-0.12034702,-0.049894214,-2.7332017,9.221938,1.4679967,30.562502,-57.281254,10.6875,0,
2022-04-15 10:25:00.565,-0.047263257,-0.0045620054,-0.10956836,40.4441707,-86.943249,14.305239,-0.010288477,-0.118738174,-0.007432461,-3.0592237,9.227921,1.6037893,30.618752,-57.281254,10.650001,0,
2022-04-15 10:25:00.764,0.1484893,0.13801244,0.006461853,40.4440495,-86.9431713,15.04972,-0.12875676,0.12614536,0.092990875,-2.6721847,9.524631,0.58624154,30.562502,-57.318752,10.650001,0,
2022-04-15 10:25:00.964,0.09846366,0.08307531,-0.026528126,40.4440495,-86.9431713,15.04972,-0.10480142,0.060343742,0.05172658,-2.6721847,9.524631,0.58624154,30.54375,-57.300003,10.63125,0,
2022-04-15 10:25:01.163,-0.1756835,0.15983672,0.056530092,40.4440495,-86.9431713,15.04972,0.12013626,-0.06760216,0.20150769,-2.1140587,9.230911,1.5164514,30.525002,-57.2625,10.59375,0,
2022-04-15 10:25:01.363,-0.05101312,0.23669581,0.026396615,40.4440495,-86.9431713,15.04972,-0.015573978,-0.003950119,0.24303472,-2.2265215,8.559725,1.4243277,30.468752,-57.2625,10.63125,0,
2022-04-15 10:25:01.563,-0.114386335,0.3181715,-0.04953309,40.4440495,-86.9431713,15.04972,-0.039215565,-0.07525158,0.33101392,-3.1070802,9.134003,1.0157533,30.562502,-57.112503,10.59375,0,
2022-04-15 10:25:01.764,-0.14399813,0.236643,0.039392117,40.4439218,-86.9430905,15.641973,0.065262794,-0.0541811,0.26663136,-2.254039,9.395418,1.4721842,30.35625,-57.131252,10.556251,0,
2022-04-15 10:25:01.963,-0.024811458,0.26102263,0.039452493,40.4439218,-86.9430905,15.641973,-0.028578758,0.02313137,0.26258922,-2.254039,9.395418,1.4721842,30.31875,-57.075,10.556251,0,
2022-04-15 10:25:02.163,-0.062989086,0.12902518,0.094438866,40.4439218,-86.9430905,15.641973,0.04344797,0.04235363,0.16078639,-2.7122645,8.733803,2.3234308,30.187502,-57.131252,10.668751,0,
2022-04-15 10:25:02.365,-0.07881831,0.08531667,-0.09686511,40.4439218,-86.9430905,15.641973,-0.0023810863,-0.12725353,0.08170056,-3.1794631,9.403194,2.2791636,30.243752,-57.093754,10.51875,0,
2022-04-15 10:25:02.563,-0.07995415,0.113393135,-0.19450589,40.4439218,-86.9430905,15.641973,-0.024229527,-0.226264,0.07280612,-3.5557344,9.107083,2.9485557,30.187502,-57.018753,10.462501,0,
2022-04-15 10:25:02.763,0.108522266,0.10767261,-0.10110869,40.4437935,-86.9430144,15.569741,-0.1663549,-0.06836891,0.03528714,-3.7238302,9.539586,2.484348,30.187502,-56.925003,10.387501,0,
2022-04-15 10:25:02.963,0.17548628,0.12780061,0.21400179,40.4437935,-86.9430144,15.569741,-0.1446929,0.24727535,0.1041348,-3.7238302,9.539586,2.484348,30.337502,-56.86875,10.33125,0,
2022-04-15 10:25:03.163,8.240305E-4,-0.08903989,-0.15191503,40.4437935,-86.9430144,15.569741,-0.005245924,-0.13289261,-0.115407944,-3.577868,8.986844,2.2594228,30.393751,-56.8875,10.368751,0,
2022-04-15 10:25:03.363,-0.021947768,0.17470439,-0.12694213,40.4437935,-86.9430144,15.569741,-0.108230114,-0.12025738,0.14471364,-2.2971098,9.355937,2.0458634,30.525002,-56.8875,10.40625,0,
2022-04-15 10:25:03.562,0.023750834,0.09316002,0.048719637,40.4437935,-86.9430144,15.569741,-0.019431353,0.052015305,0.092375994,-2.431706,9.62812,1.9710877,30.618752,-56.8875,10.368751,0,
2022-04-15 10:25:03.763,0.04178926,0.030450584,0.06564742,40.4436656,-86.9429398,15.482459,-0.002306223,0.075473785,0.035798788,-1.8879371,8.88814,2.1738794,30.806252,-56.737503,10.275001,0,
2022-04-15 10:25:03.963,-0.114015795,-0.057305317,-0.022793721,40.4436656,-86.9429398,15.482459,0.0901227,-0.08560467,-0.036780357,-1.8879371,8.88814,2.1738794,30.825,-56.737503,10.462501,0,
2022-04-15 10:25:04.163,-0.11212639,0.02662956,0.16400036,40.4436656,-86.9429398,15.482459,0.16979122,0.059404373,0.088428736,-2.0691934,9.442079,2.425724,30.900002,-56.775,10.51875,0,
2022-04-15 10:25:04.363,-0.14431986,-0.106249735,0.09868654,40.4436656,-86.9429398,15.482459,0.19667816,0.05342865,-0.017870188,-3.437888,8.796016,2.6656044,31.050001,-56.756252,10.556251,0,
2022-04-15 10:25:04.562,0.018325768,-0.033851102,-0.025748901,40.4436656,-86.9429398,15.482459,-0.020825863,-0.006960869,-0.040774584,-1.9818554,9.432507,1.6827525,31.031252,-56.812504,10.59375,0,
2022-04-15 10:25:04.763,-0.11542573,-0.06958701,-0.03840834,40.4435401,-86.9428621,15.353405,0.1042645,-0.084046364,-0.041301012,-2.7948167,9.110074,2.4825535,31.06875,-56.850002,10.59375,0,
2022-04-15 10:25:04.962,-0.10978296,0.018133126,0.10545033,40.4435401,-86.9428621,15.353405,0.12917495,0.0355196,0.07451892,-2.7948167,9.110074,2.4825535,31.2,-56.850002,10.63125,0,
2022-04-15 10:25:05.163,0.090359405,-0.018350072,0.024870005,40.4435401,-86.9428621,15.353405,-0.055898905,0.06761074,-0.037738085,-3.0155547,9.647263,2.3336003,31.237501,-56.86875,10.70625,0,
2022-04-15 10:25:05.363,0.03292672,0.08427085,-0.058513444,40.4435401,-86.9428621,15.353405,-0.08421445,-0.036211967,0.05662322,-2.5208387,9.0341015,2.25703,31.29375,-56.9625,10.81875,0,
2022-04-15 10:25:05.563,0.17340048,0.072945476,-0.050323352,40.4435401,-86.9428621,15.353405,-0.1776576,0.07609367,0.023848295,-1.9728823,8.883952,1.692922,31.425001,-56.850002,10.725,0,
2022-04-15 10:25:05.766,0.13189808,0.104395784,0.021146167,40.4434153,-86.942788,15.200788,-0.14382005,0.072527885,0.052898407,-3.5527434,9.22134,1.7336,31.500002,-56.831253,10.762501,0,
2022-04-15 10:25:05.96,0.022459477,-0.022845693,-0.034760673,40.4434153,-86.942788,15.200788,-0.022807598,-0.022192001,-0.034956932,-3.5527434,9.22134,1.7336,31.48125,-56.906254,10.9125,0,
2022-04-15 10:25:06.161,-0.19658539,-0.083400905,0.049561698,40.4434153,-86.942788,15.200788,0.2133441,-0.049801826,-0.007871866,-2.7852457,8.458628,1.7449659,31.312502,-57.187504,11.26875,1,
2022-04-15 10:25:06.36,-0.12818058,-0.04553272,-0.13502833,40.4434153,-86.942788,15.200788,0.02119112,-0.18373775,-0.050274372,-1.7258233,9.402596,2.1128623,31.3875,-57.300003,11.3625,0,
2022-04-15 10:25:06.56,0.16603331,0.17865765,-0.009276656,40.4434153,-86.942788,15.200788,-0.19428325,0.090774536,0.1165576,-2.9485557,9.102896,1.2658032,31.368752,-57.375004,11.38125,0,
2022-04-15 10:25:06.76,0.15574478,0.014875159,-0.06250465,40.4432934,-86.9427147,14.993022,-0.16043377,0.030554771,-0.041375637,-2.8025935,9.352945,1.8167506,31.406252,-57.3375,11.3625,0,
2022-04-15 10:25:06.96,0.0050868746,-0.05737675,-0.04903603,40.4432934,-86.9427147,14.993022,-0.0092971325,-0.038516045,-0.06444049,-2.8025935,9.352945,1.8167506,31.312502,-57.393753,11.3625,0,
2022-04-15 10:25:07.16,0.034483418,-0.13613965,0.018729657,40.4432934,-86.9427147,14.993022,0.028100014,0.032305717,-0.13505793,-3.004787,9.245867,1.6414764,31.29375,-57.45,11.56875,0,
2022-04-15 10:25:07.36,0.12335299,-0.113738045,-0.07715671,40.4432934,-86.9427147,14.993022,-0.09124017,-0.0128622055,-0.16004765,-3.2823544,9.28475,1.8508483,31.25625,-57.61875,11.64375,0,
2022-04-15 10:25:07.561,0.035565518,-0.16800304,-0.10635176,40.4432934,-86.9427147,14.993022,-0.014989376,-0.06857681,-0.1894021,-3.013162,9.458828,2.1332014,31.275002,-57.525,11.56875,0,
2022-04-15 10:25:07.759,-0.014391072,-0.06340354,-0.014222267,40.443171,-86.9426424,15.048709,0.022581339,-0.02097416,-0.058987737,-2.5423741,9.349357,1.6713866,31.48125,-57.281254,11.325001,0,
2022-04-15 10:25:07.961,0.12667719,-0.043184213,-0.12337051,40.443171,-86.9426424,15.048709,-0.15328956,-0.025471687,-0.09479332,-2.5423741,9.349357,1.6713866,31.462502,-57.15,11.306251,0,
2022-04-15 10:25:08.159,0.10013363,-0.031015184,-0.057012293,40.443171,-86.9426424,15.048709,-0.09489632,0.003575325,-0.072256446,-2.5692933,8.696713,2.7756743,31.406252,-57.05625,11.231251,0,
2022-04-15 10:25:08.361,0.031228427,0.09585667,0.057158463,40.443171,-86.9426424,15.048709,-0.034212828,0.064014435,0.09034622,-3.00718,9.101101,1.7934206,31.29375,-57.15,11.2875,0,
2022-04-15 10:25:08.559,0.11836715,-0.087118685,-0.08975582,40.443171,-86.9426424,15.048709,-0.11851215,0.011279106,-0.124435544,-1.9908284,9.600603,1.9028922,31.35,-57.093754,11.231251,0,
2022-04-15 10:25:08.759,0.01764616,-0.016922627,-0.09244786,40.4430501,-86.9425696,15.316152,-0.07002568,-0.05295658,-0.037899494,-1.5320047,9.807582,2.0691934,31.1625,-57.05625,11.175,0,
2022-04-15 10:25:08.958,-0.17818134,-0.03383168,0.06521615,40.4430501,-86.9425696,15.316152,0.17705274,-0.07577801,0.0075062513,-1.5320047,9.807582,2.0691934,30.91875,-56.775,11.25,0,
2022-04-15 10:25:09.158,0.3367876,0.16676536,0.1824864,40.4430501,-86.9425696,15.316152,-0.2728417,0.31252956,0.049199104,-3.650251,9.201001,1.0109676,30.7875,-56.812504,11.25,0,
2022-04-15 10:25:09.358,-0.110660814,-0.11572389,-0.23617539,40.4430501,-86.9425696,15.316152,0.13150215,-0.22984505,-0.1062783,-4.2520456,8.543573,2.2145574,30.69375,-56.775,11.19375,0,
2022-04-15 10:25:09.558,0.24808353,0.28776646,0.13643508,40.4430501,-86.9425696,15.316152,-0.24745297,0.24939728,0.1988405,-3.411567,9.278768,1.1353943,30.562502,-56.79375,11.25,0,
2022-04-15 10:25:09.758,0.14622504,-0.02902329,-0.16564322,40.4429256,-86.9424936,15.617111,-0.20177078,-0.035434723,-0.08771956,-2.018944,8.834301,1.5373886,30.487501,-56.79375,11.2875,0,
2022-04-15 10:25:09.958,-0.41115206,-0.22579649,-0.11490946,40.4429256,-86.9424936,15.617111,0.31075072,-0.34697723,-0.12757373,-2.5310082,9.47797,1.439881,30.431252,-56.718754,11.2875,1,
2022-04-15 10:25:10.158,-0.18191126,-0.04048209,-0.026242249,40.4429256,-86.9424936,15.617111,0.16167688,-0.09347534,0.023283243,-3.6610186,9.521041,1.5379868,30.225,-56.68125,11.3625,0,
2022-04-15 10:25:10.358,-0.04178304,-0.065374196,-0.121687025,40.4429256,-86.9424936,15.617111,0.002583027,-0.1252966,-0.0715642,-2.9413772,9.339785,1.8532411,30.187502,-56.7,11.38125,0,
2022-04-15 10:25:10.558,-0.15301539,0.007578656,0.11500439,40.4429256,-86.9424936,15.617111,0.17802835,0.016674995,0.0687387,-2.7044878,9.100503,1.5517455,30.16875,-56.906254,11.34375,0,
2022-04-15 10:25:10.757,0.09058194,0.04468497,-0.0045284973,40.4427971,-86.9424112,15.838243,-0.08147073,0.05609131,0.020943403,-2.364707,9.594621,1.2873386,30.018751,-56.943752,11.34375,0,
2022-04-15 10:25:10.957,0.07731485,0.07177058,0.022436727,40.4427971,-86.9424112,15.838243,-0.062359333,0.06974697,0.05365336,-2.364707,9.594621,1.2873386,29.85,-56.925003,11.2875,0,
2022-04-15 10:25:11.157,-0.09045064,-0.083398625,0.02857384,40.4427971,-86.9424112,15.838243,0.10944557,-0.03263855,-0.05393982,-2.2151556,8.937193,1.4709877,29.643751,-56.906254,11.212501,0,
2022-04-15 10:25:11.357,-0.029186107,-0.027969325,0.01266931,40.4427971,-86.9424112,15.838243,0.037863255,-0.0085401535,-0.016972423,-2.9276185,9.491729,0.8542377,29.38125,-56.925003,11.306251,0,
2022-04-15 10:25:11.557,-0.14196625,-0.069498494,-0.014723736,40.4427971,-86.9424112,15.838243,0.1336236,-0.07944107,-0.03217292,-2.6751757,9.795618,2.3144577,29.1375,-56.8875,11.19375,0,
2022-04-15 10:25:11.758,-0.028698273,0.13493966,0.15186627,40.4426697,-86.942325,16.09671,0.047036648,0.12282848,0.15746868,-3.1016963,9.685548,1.4614165,28.931252,-56.906254,11.175,0,
2022-04-15 10:25:11.957,0.16665377,0.015455265,0.031122012,40.4426697,-86.942325,16.09671,-0.13003182,0.10531902,-0.031313777,-3.1016963,9.685548,1.4614165,28.7625,-56.8875,11.212501,0,
2022-04-15 10:25:12.156,6.0744584E-5,-0.09879858,-0.24705386,40.4426697,-86.942325,16.09671,-0.10778928,-0.2010622,-0.13693881,-2.1828525,9.08136,1.6223338,28.593752,-56.756252,11.137501,0,
2022-04-15 10:25:12.357,-0.068386964,0.041808777,-0.22992139,40.4426697,-86.942325,16.09671,-0.076406,-0.23005009,0.022971392,-2.495714,9.171689,1.4494523,28.425001,-56.662502,11.25,0,
2022-04-15 10:25:12.556,0.10164963,0.17520696,-0.1020506,40.4426697,-86.942325,16.09671,-0.1830008,-0.0107393265,0.13356578,-2.1834507,9.777672,1.3764713,28.29375,-56.60625,11.231251,0,
2022-04-15 10:25:12.757,0.13458529,0.1047214,0.11799954,40.4425365,-86.9422378,16.259153,-0.077046394,0.16882896,0.09254348,-2.2414765,9.51147,1.9268204,28.143751,-56.5875,11.26875,0,
2022-04-15 10:25:12.956,-0.059063267,-0.02006264,-0.06549186,40.4425365,-86.9422378,16.259153,0.019246817,-0.08640671,-0.018536568,-2.2414765,9.51147,1.9268204,28.031252,-56.568752,11.231251,0,
2022-04-15 10:25:13.156,0.040647633,0.07087558,-0.083588324,40.4425365,-86.9422378,16.259153,-0.09402108,-0.055708885,0.04146254,-2.7338,9.297313,1.6755741,27.975,-56.531254,11.25,0,
2022-04-15 10:25:13.356,0.22015944,0.17372619,-0.06827723,40.4425365,-86.9422378,16.259153,-0.27995753,-0.03249359,0.0622952,-3.8446677,9.603594,2.3581266,27.7875,-56.625004,11.2875,0,
2022-04-15 10:25:13.556,0.2312386,0.22686827,-0.018361637,40.4425365,-86.9422378,16.259153,-0.2900226,0.059799194,0.132622,-3.2452657,9.212965,1.5397813,27.69375,-56.68125,11.175,0,
2022-04-15 10:25:13.756,0.016943876,-0.005695533,-0.12000211,40.4424043,-86.9421431,16.351154,-0.061275244,-0.09924984,-0.03338945,-2.5932214,8.824132,1.8239291,27.618752,-56.718754,11.19375,0,
2022-04-15 10:25:13.956,0.043208007,0.050920036,-0.21082069,40.4424043,-86.9421431,16.351154,-0.11409688,-0.18874454,-0.016203165,-3.1998022,9.193823,2.3341985,27.525002,-56.850002,11.118751,0,
2022-04-15 10:25:14.155,0.009170901,0.16592841,0.08240946,40.4424043,-86.9421431,16.351154,-0.02521348,0.075226784,0.16766894,-2.7349963,9.302098,1.5535401,27.31875,-56.8875,11.15625,0,
2022-04-15 10:25:14.355,0.05139476,-0.08429799,-0.028232303,40.4424043,-86.9421431,16.351154,-0.024101496,-0.0010128021,-0.09981346,-2.981457,9.055637,1.9082761,27.150002,-56.925003,11.1,0,
2022-04-15 10:25:14.556,0.012957683,0.11545666,-0.0276353,40.4424043,-86.9421431,16.351154,-0.059291363,-0.024962425,0.10061443,-2.4993033,9.510872,2.015953,26.962502,-56.943752,11.00625,0,
2022-04-15 10:25:14.756,-0.0064133946,0.032548014,0.12552622,40.4422805,-86.9420415,16.421831,0.045402765,0.10698509,0.057880163,-2.6285157,9.499506,2.0440688,26.718752,-57.037502,11.043751,0,
2022-04-15 10:25:14.955,0.12335878,0.018967902,0.02443667,40.4422805,-86.9420415,16.421831,-0.10188985,0.07553387,-0.009349585,-2.6285157,9.499506,2.0440688,26.681252,-56.943752,10.950001,0,
2022-04-15 10:25:15.155,-0.10860796,0.028490577,0.1708194,40.4422805,-86.9420415,16.421831,0.1458795,0.10831165,0.09367192,-2.6973093,9.273982,2.1661026,26.475,-57.000004,10.931251,0,
2022-04-15 10:25:15.357,0.026346058,-0.041698046,0.073003225,40.4422805,-86.9420415,16.421831,0.021887302,0.078372,-0.03377998,-2.4729822,9.132208,1.66361,26.250002,-57.112503,10.875,0,
2022-04-15 10:25:15.557,-0.12905942,-0.038720865,-0.021405516,40.4422805,-86.9420415,16.421831,0.12243271,-0.060199738,2.4020672E-4,-3.199204,9.573684,1.855634,26.118752,-57.037502,10.81875,0,
2022-04-15 10:25:15.755,0.035515603,0.086967245,0.02652014,40.4421566,-86.9419355,16.410118,-0.045141697,0.035866737,0.07876408,-2.3772693,9.117252,1.7443677,25.987501,-57.15,10.856251,0,
2022-04-15 10:25:15.955,0.022786159,-0.014396075,-0.07632146,40.4421566,-86.9419355,16.410118,-0.04749489,-0.056484222,-0.03324437,-2.3772693,9.117252,1.7443677,25.81875,-57.206253,10.931251,0,
2022-04-15 10:25:16.156,-0.2473313,-0.011516675,0.19285345,40.4421566,-86.9419355,16.410118,0.30150437,0.03851223,0.078165054,-2.0464616,9.23809,1.8335004,25.650002,-57.24375,11.043751,0,
2022-04-15 10:25:16.354,0.031410336,-0.0026628152,-0.10120853,40.4421566,-86.9419355,16.410118,-0.07052493,-0.0734911,-0.02936256,-2.2217357,9.230911,1.8753748,25.556252,-57.225002,11.00625,0,
2022-04-15 10:25:16.554,-0.1941789,-0.04629079,-0.031059526,40.4421566,-86.9419355,16.410118,0.15581274,-0.12811852,-0.011000991,-2.0141585,9.61795,1.7958134,25.368752,-57.16875,11.00625,0,
2022-04-15 10:25:16.753,-0.142867,0.044125162,0.08603671,40.4420351,-86.9418239,16.410706,0.1502974,-0.015442848,0.08326185,-1.6002002,9.633504,2.0608184,25.2,-57.075,11.08125,0,
2022-04-15 10:25:16.954,0.2602841,0.072608486,-0.076753624,40.4420351,-86.9418239,16.410706,-0.26909423,0.079642296,0.012503505,-1.6002002,9.633504,2.0608184,25.050001,-57.05625,11.175,0,
2022-04-15 10:25:17.154,0.019443663,-0.008271061,-0.15232958,40.4420351,-86.9418239,16.410706,-0.09904051,-0.110993385,-0.03901553,-1.4566308,8.970094,1.6947167,24.862501,-57.05625,11.25,0,
2022-04-15 10:25:17.353,-0.10838142,-0.053570975,-0.08880468,40.4420351,-86.9418239,16.410706,0.09194064,-0.111849785,-0.03923261,-2.769094,9.149555,2.193022,24.712502,-57.000004,11.34375,0,
2022-04-15 10:25:17.553,-0.03299772,-0.023972524,-0.057805732,40.4420351,-86.9418239,16.410706,0.015041351,-0.06595421,-0.020708323,-2.6757739,9.066405,1.1802598,24.675001,-57.018753,11.2875,0,
2022-04-15 10:25:17.753,-0.14664192,-0.06208782,0.0046518585,40.441917,-86.9417035,16.460476,0.1398704,-0.070534706,-0.029008865,-1.9334008,9.080762,1.5523437,24.656252,-56.9625,11.118751,0,
2022-04-15 10:25:17.953,-0.086606435,-0.008867594,-0.002290467,40.441917,-86.9417035,16.460476,0.072802305,-0.046967506,0.008856177,-1.9334008,9.080762,1.5523437,24.6375,-57.037502,11.00625,0,
2022-04-15 10:25:18.153,0.12133284,0.14556429,0.18144302,40.441917,-86.9417035,16.460476,-0.07573342,0.21021748,0.13749635,-2.3952155,9.035298,1.5308083,24.750002,-57.187504,11.043751,0,
2022-04-15 10:25:18.352,0.042840175,-0.18584074,-0.11173885,40.441917,-86.9417035,16.460476,0.009585619,-0.07294941,-0.20843256,-3.1573296,8.845667,1.9842482,24.862501,-57.281254,10.9125,0,
2022-04-15 10:25:18.552,0.069365636,0.12408434,-0.15212527,40.441917,-86.9417035,16.460476,-0.1470027,-0.12741947,0.07419634,-3.165106,9.449855,1.3591232,25.050001,-57.300003,10.6125,0,
2022-04-15 10:25:18.753,0.10357282,0.07239593,0.04976765,40.4418035,-86.9415792,16.430994,-0.11748171,0.057037354,0.037284136,-3.5186458,8.873783,1.6749759,25.218752,-57.375004,10.40625,0,
2022-04-15 10:25:18.952,0.041775733,0.08038971,0.10360449,40.4418035,-86.9415792,16.430994,-0.05689144,0.09938145,0.0763433,-3.5186458,8.873783,1.6749759,25.48125,-57.375004,10.200001,0,
2022-04-15 10:25:19.152,0.13826777,-1.7685816E-4,-0.087322176,40.4418035,-86.9415792,16.430994,-0.15070415,-0.031737328,-0.054992437,-3.0436704,9.395418,1.4476577,25.650002,-57.393753,10.012501,0,
2022-04-15 10:25:19.353,-0.08912782,0.015346568,0.03917368,40.4418035,-86.9415792,16.430994,0.080316305,0.022353172,0.052568913,-3.9290147,9.672387,1.4081762,25.875002,-57.412502,10.03125,0,
2022-04-15 10:25:19.552,-0.03407709,-0.004281111,0.10286824,40.4418035,-86.9415792,16.430994,0.07812023,0.07227421,0.02085948,-2.3353949,8.960523,1.5014962,26.025002,-57.35625,9.88125,0,
2022-04-15 10:25:19.753,-0.14583431,-0.13522188,0.06915163,40.4416945,-86.9414474,16.44016,0.19548917,8.535385E-4,-0.07821643,-2.4831517,9.606585,2.0811574,26.1,-57.300003,9.69375,0,
2022-04-15 10:25:19.952,-0.012209587,0.13722433,0.08555257,40.4416945,-86.9414474,16.44016,0.0046048164,0.060025215,0.15058088,-2.4831517,9.606585,2.0811574,26.19375,-57.281254,9.731251,0,
2022-04-15 10:25:20.152,0.09845293,0.019458044,0.10374397,40.4416945,-86.9414474,16.44016,-0.050703287,0.13489628,0.008159518,-2.8025935,9.343972,1.6857436,26.23125,-57.24375,9.69375,0,
2022-04-15 10:25:20.352,-0.26366812,-0.09255229,0.14057161,40.4416945,-86.9414474,16.44016,0.3127334,-0.006217003,0.0025185347,-2.4275186,8.7164545,1.3495519,26.306252,-57.187504,9.675,0,
2022-04-15 10:25:20.552,-0.19010034,-0.114099264,0.0073677422,40.4416945,-86.9414474,16.44016,0.2177012,-0.022542,-0.03618169,-3.5874393,9.400204,2.3132613,26.306252,-57.24375,9.618751,0,
2022-04-15 10:25:20.751,0.045512382,0.1831367,0.11957348,40.4415846,-86.9413125,16.440094,-0.020072937,0.12321186,0.1852678,-2.175674,9.495318,1.5744773,26.41875,-57.187504,9.65625,0,
2022-04-15 10:25:20.952,0.10008803,-0.034278363,0.03151754,40.4415846,-86.9413125,16.440094,-0.052598238,0.08316898,-0.050023198,-2.175674,9.495318,1.5744773,26.456251,-57.300003,9.75,0,
2022-04-15 10:25:21.151,-0.34701926,-0.091451615,-0.039183352,40.4415846,-86.9413125,16.440094,0.32915258,-0.1471529,0.018047094,-3.0460632,8.915059,1.7557336,26.475,-57.112503,9.975,0,
2022-04-15 10:25:21.352,0.09733733,0.06571963,0.08457329,40.4415846,-86.9413125,16.440094,-0.1007998,0.094200134,0.043726444,-3.5491543,9.025727,2.2145574,26.531252,-56.86875,10.125,0,
2022-04-15 10:25:21.552,0.14077862,0.018586665,-0.03521534,40.4415846,-86.9413125,16.440094,-0.13794613,-0.014989853,-0.046372175,-3.6628132,8.404191,2.2115662,26.643751,-56.662502,9.95625,0,
2022-04-15 10:25:21.75,0.09649351,0.18863322,-0.009041322,40.4414754,-86.9411751,16.390554,-0.1540258,0.015229225,0.14498055,-2.9952157,9.236296,1.9441684,26.79375,-56.625004,10.087501,0,
2022-04-15 10:25:21.951,-6.9219014E-4,-0.006612966,-0.045389064,40.4414754,-86.9411751,16.390554,-0.012246847,-0.041632652,-0.014869928,-2.9952157,9.236296,1.9441684,26.831251,-56.643753,10.1625,0,
2022-04-15 10:25:22.15,0.40007448,0.37704092,-0.091935195,40.4414754,-86.9411751,16.390554,-0.42699838,0.23313713,0.27201283,-2.2175484,9.897313,0.83030945,26.85,-56.5875,10.275001,0,
2022-04-15 10:25:22.35,-0.049222477,-0.271516,-0.18401097,40.4414754,-86.9411751,16.390554,0.03513527,-0.16523647,-0.28542292,-2.111666,8.789435,1.9345971,26.75625,-56.568752,10.3125,0,
2022-04-15 10:25:22.551,-0.68079984,-0.17415923,-0.35120443,40.4414754,-86.9411751,16.390554,0.5410578,-0.5647526,-0.07399535,-2.8546374,9.83151,2.900101,26.60625,-56.531254,10.275001,0,
2022-04-15 10:25:22.75,-0.34121636,-0.019658543,0.27685517,40.4413707,-86.9410388,16.241459,0.43191123,-0.015213966,0.081761956,-1.7162521,10.1348,1.6803597,26.60625,-56.7,10.2375,0,
2022-04-15 10:25:22.95,-0.21745923,-0.11653254,0.2943312,40.4413707,-86.9410388,16.241459,0.37406945,0.081650734,-0.030074,-1.7162521,10.1348,1.6803597,26.5125,-56.925003,10.1625,0,
2022-04-15 10:25:23.15,-0.13070151,-0.13271725,0.077505074,40.4413707,-86.9410388,16.241459,0.17821217,-0.02944851,-0.08987212,-2.3228326,8.986844,0.6795616,26.362501,-57.093754,10.3125,0,
2022-04-15 10:25:23.351,-0.30995455,-0.33913094,-0.3110175,40.4413707,-86.9410388,16.241459,0.28765035,-0.3841467,-0.27839196,-2.8438697,8.82832,1.6384853,26.19375,-57.16875,10.293751,0,
2022-04-15 10:25:23.55,0.031092532,0.11742183,-0.006294554,40.4413707,-86.9410388,16.241459,-0.06864047,0.0010137558,0.10040772,-2.8713872,9.3308115,1.7282162,26.19375,-57.131252,10.2375,0,
2022-04-15 10:25:23.751,0.16788574,-0.049671836,-0.009199457,40.4412685,-86.9409052,16.200357,-0.12018752,0.09704113,-0.08291876,-1.8161523,8.848659,1.1078769,26.062502,-57.206253,10.200001,0,
2022-04-15 10:25:23.95,-0.2877738,-0.19551176,0.0842815,40.4412685,-86.9409052,16.200357,0.31331325,-0.122447014,-0.12240708,-1.8161523,8.848659,1.1078769,26.081251,-57.24375,10.181251,0,
2022-04-15 10:25:24.15,0.104674235,0.14381337,0.1294816,40.4412685,-86.9409052,16.200357,0.024635315,0.17258263,0.13421178,-1.4506488,10.167702,0.5401797,26.156252,-57.2625,10.05,0,
2022-04-15 10:25:24.349,0.13093568,-0.120575026,0.08102346,40.4412685,-86.9409052,16.200357,-0.014988899,0.1567688,-0.11595762,-1.0157533,9.255438,1.8335004,26.025002,-57.35625,10.012501,0,
2022-04-15 10:25:24.554,-0.27784336,-0.047770448,0.046536412,40.4412685,-86.9409052,16.200357,0.27706075,-0.04864502,0.05015576,-2.9970105,8.854042,1.378864,25.987501,-57.412502,9.993751,0,
2022-04-15 10:25:24.75,0.026584566,-0.11549472,-0.123306826,40.4411642,-86.9407683,16.318747,-0.013280153,-0.10809994,-0.13186502,-3.403192,9.300303,1.2269198,25.931252,-57.412502,9.88125,0,
2022-04-15 10:25:24.949,0.008832967,0.058465965,-0.034128547,40.4411642,-86.9407683,16.318747,-0.03773141,-0.031653404,0.04728055,-3.403192,9.300303,1.2269198,25.95,-57.412502,9.900001,0,
2022-04-15 10:25:25.149,0.029509075,0.00750386,0.053167284,40.4411642,-86.9407683,16.318747,-0.0019919872,0.060731888,0.007843733,-2.5124638,9.542577,1.5206388,25.81875,-57.43125,9.95625,0,
2022-04-15 10:25:25.349,0.072176315,0.05185034,0.0036761076,40.4411642,-86.9407683,16.318747,-0.07352185,0.036135674,0.034643054,-2.2827528,10.094721,2.2522442,25.800001,-57.393753,9.84375,0,
2022-04-15 10:25:25.548,0.15097654,0.07888767,0.11832729,40.4411642,-86.9407683,16.318747,-0.09526563,0.17846012,0.045770884,-2.772085,9.467801,1.0630114,25.781252,-57.412502,9.8625,0,
2022-04-15 10:25:25.748,-0.027548974,-0.06934078,-0.07549932,40.4410574,-86.9406349,16.319973,0.011541843,-0.07881451,-0.07015908,-2.6153553,9.412766,1.4931214,25.706251,-57.393753,9.8625,0,
2022-04-15 10:25:25.949,0.052978594,0.018557122,-0.019636337,40.4410574,-86.9406349,16.319973,-0.05906105,0.006928444,6.877184E-4,-2.6153553,9.412766,1.4931214,25.743752,-57.3375,9.84375,0,
2022-04-15 10:25:26.148,0.026628092,-0.04485159,-0.037934415,40.4410574,-86.9406349,16.319973,-0.031089544,-0.014262199,-0.054678798,-1.8867407,9.266206,1.5266209,25.725,-57.35625,9.806251,0,
2022-04-15 10:25:26.348,-0.1678837,-0.045851946,-0.16025658,40.4410574,-86.9406349,16.319973,0.11553645,-0.2043314,-0.02948749,-2.926422,9.490533,2.2229323,25.7625,-57.375004,9.88125,0,
2022-04-15 10:25:26.547,0.35159478,0.18247655,0.1746728,40.4410574,-86.9406349,16.319973,-0.3278253,0.26693153,0.09330213,-2.9832516,8.991031,1.7587247,25.7625,-57.3375,9.84375,1,
2022-04-15 10:25:26.747,0.039071754,-0.09283304,-0.20776683,40.4409503,-86.9404984,16.507126,-0.08918548,-0.17328739,-0.12381053,-2.8839495,9.326625,1.1479566,25.800001,-57.35625,9.825001,0,
2022-04-15 10:25:26.947,-0.17046335,0.030055314,0.09786558,40.4409503,-86.9404984,16.507126,0.17651439,0.016989708,0.08995974,-2.8839495,9.326625,1.1479566,25.81875,-57.393753,9.900001,0,
2022-04-15 10:25:27.147,0.08303623,-0.045819096,-0.018718097,40.4409503,-86.9404984,16.507126,-0.06379914,0.0353899,-0.06341922,-1.7413766,8.652447,1.3423735,25.800001,-57.393753,9.88125,0,
2022-04-15 10:25:27.347,-0.08065304,-0.029353118,-0.12883483,40.4409503,-86.9404984,16.507126,0.02023387,-0.15103054,-0.027300239,-2.5208387,9.250054,1.5278172,25.781252,-57.468754,9.900001,0,
2022-04-15 10:25:27.547,0.059233658,0.2563361,0.3646116,40.4409503,-86.9404984,16.507126,-0.05403614,0.34465218,0.28364313,-3.2392836,9.316455,1.7724833,25.81875,-57.487503,9.9375,0,
2022-04-15 10:25:27.747,0.11864796,0.028193366,0.26655966,40.4408399,-86.9403645,16.698307,-0.027191877,0.2917099,0.009600759,-3.1692936,9.011969,0.802792,25.81875,-57.487503,10.012501,0,
2022-04-15 10:25:27.947,0.026729655,-0.118718095,-0.18863073,40.4408399,-86.9403645,16.698307,-0.044627666,-0.17273903,-0.13623369,-3.1692936,9.011969,0.802792,25.81875,-57.506252,10.06875,0,
2022-04-15 10:25:28.147,-0.21563795,0.049175296,0.0038911905,40.4408399,-86.9403645,16.698307,0.16096807,-0.12148571,0.090904236,-1.9770697,9.607781,1.736591,25.893751,-57.54375,10.14375,0,
2022-04-15 10:25:28.347,0.030569179,0.05630324,0.10996181,40.4408399,-86.9403645,16.698307,-8.2945824E-4,0.11193752,0.060542822,-2.821138,9.413364,1.4321043,25.968752,-57.54375,10.275001,1,
2022-04-15 10:25:28.546,0.13428946,0.07346271,-0.05238385,40.4408399,-86.9403645,16.698307,-0.15293717,0.03903389,0.035511613,-2.0015962,8.874381,1.1018949,26.025002,-57.562504,10.462501,0,
2022-04-15 10:25:28.746,-0.038457282,-0.00372527,-0.022238102,40.4407311,-86.9402327,16.789083,0.027617216,-0.034863472,0.0030332804,-2.6470602,8.743374,1.8418752,26.062502,-57.487503,10.575001,0,
2022-04-15 10:25:28.946,-0.060838353,0.03154097,-0.0099484185,40.4407311,-86.9402327,16.789083,0.03950715,-0.034894943,0.044906974,-2.6470602,8.743374,1.8418752,26.156252,-57.468754,10.762501,0,
2022-04-15 10:25:29.146,0.038547143,-0.045764446,-0.121905155,40.4407311,-86.9402327,16.789083,-0.072597265,-0.090556145,-0.07050073,-2.6853452,9.492926,1.3453646,26.175001,-57.412502,10.875,0,
2022-04-15 10:25:29.346,0.039359998,0.07762379,-0.19120508,40.4407311,-86.9402327,16.789083,-0.13776636,-0.1560278,0.028457046,-2.3952155,8.944371,1.7359928,26.212502,-57.412502,10.931251,0,
2022-04-15 10:25:29.545,0.012417244,0.074145466,-0.06380779,40.4407311,-86.9402327,16.789083,-0.052906275,-0.06341648,0.053874373,-3.2434711,8.849854,1.5828521,26.268751,-57.35625,10.931251,0,
2022-04-15 10:25:29.746,0.06596475,-0.0079744775,-0.027027303,40.4406228,-86.9401002,16.789902,-0.065286875,0.0070791245,-0.02886045,-2.6171498,9.279964,1.2574283,26.212502,-57.2625,10.931251,0,
2022-04-15 10:25:29.945,-0.0094734505,0.10941571,-0.023467042,40.4406228,-86.9401002,16.789902,-0.036160707,-0.03452587,0.1005615,-2.5136602,9.044271,2.0291135,26.156252,-57.24375,10.9125,0,
2022-04-15 10:25:30.146,-0.068749584,-0.05769343,-0.003194396,40.4406228,-86.9401002,16.789902,0.07939124,-0.02649784,-0.032559752,-3.333202,9.772287,1.2442678,26.1,-57.16875,10.8,0,
2022-04-15 10:25:30.345,-0.04254016,-0.06385088,-0.033959422,40.4406228,-86.9401002,16.789902,0.038165808,-0.049129486,-0.056298375,-2.225325,8.751749,1.5110675,26.156252,-57.131252,10.743751,0,
2022-04-15 10:25:30.545,-0.27108726,-0.1999121,-0.041351616,40.4406228,-86.9401002,16.789902,0.20268226,-0.22711754,-0.15000212,-1.6235301,8.695518,0.8362915,26.118752,-57.018753,10.575001,0,
2022-04-15 10:25:30.746,-0.29496664,-0.3446935,-0.10281834,40.4405156,-86.9399637,16.80978,0.22541332,-0.30164337,-0.2731129,-2.172683,9.126823,0.6089734,26.081251,-57.037502,10.462501,0,
2022-04-15 10:25:30.944,0.005755377,-0.020490745,-0.07128952,40.4405156,-86.9399637,16.80978,-0.019308329,-0.06373882,-0.033162355,-3.1250265,9.346365,1.7144574,26.118752,-57.018753,10.368751,0,
2022-04-15 10:25:31.146,0.18188848,-0.020207852,0.1753623,40.4405156,-86.9399637,16.80978,-0.042854548,0.2454567,-0.046456575,-2.3784657,9.239286,0.9906286,26.062502,-57.037502,10.35,0,
2022-04-15 10:25:31.345,0.14081162,-0.010426775,0.011098488,40.4405156,-86.9399637,16.80978,-0.10036373,0.0952034,-0.030384898,-1.5559329,9.364909,1.9860427,26.1375,-57.112503,10.293751,0,
2022-04-15 10:25:31.544,0.25759923,0.114512116,0.07767768,40.4405156,-86.9399637,16.80978,-0.21572018,0.1910963,0.049509645,-2.641078,9.250652,1.3094722,26.175001,-57.131252,10.21875,0,
2022-04-15 10:25:31.745,0.076941624,-0.04267728,0.06243164,40.4404054,-86.9398206,17.067482,-0.024117231,0.09287548,-0.04931104,-2.528017,9.355338,1.7347964,26.250002,-57.093754,10.106251,0,
2022-04-15 10:25:31.946,-0.015927477,-0.012505254,-0.03648439,40.4404054,-86.9398206,17.067482,0.003667593,-0.039961815,-0.011435866,-2.952743,9.1669035,1.1886346,26.2875,-57.15,10.087501,0,
2022-04-15 10:25:32.144,-0.09777166,0.055109885,0.21723244,40.4404054,-86.9398206,17.067482,0.1464591,0.16536045,0.10484266,-3.2907293,9.666406,1.0193424,26.325,-57.16875,10.125,0,
2022-04-15 10:25:32.344,0.012927946,-0.0945249,0.081651665,40.4404054,-86.9398206,17.067482,0.0523417,0.083805084,-0.07749927,-2.6955147,9.428319,1.8669999,26.400002,-57.225002,10.106251,0,
2022-04-15 10:25:32.544,-0.014613217,0.09739977,0.06412959,40.4404054,-86.9398206,17.067482,8.010864E-5,0.0530653,0.104866266,-3.365505,9.905687,1.4620147,26.38125,-57.24375,10.125,0,
2022-04-15 10:25:32.744,0.14193755,-0.062334947,-0.08999971,40.4402941,-86.9396807,17.32377,-0.11271691,-0.061923027,-0.12486911,-4.0103707,9.37149,1.474577,26.550001,-57.187504,10.106251,0,
2022-04-15 10:25:32.943,-0.08919757,0.0374584,-0.059008308,40.4402941,-86.9396807,17.32377,0.025723219,-0.10182953,0.042548537,-1.8095721,9.215358,1.7030915,26.475,-57.206253,10.05,0,
2022-04-15 10:25:33.143,-0.06609483,-0.13144387,-0.07303844,40.4402941,-86.9396807,17.32377,0.06641078,-0.09782696,-0.11401808,-2.7834508,8.989835,1.1383854,26.41875,-57.24375,10.012501,0,
2022-04-15 10:25:33.343,-0.20406455,-0.060497258,-0.08353218,40.4402941,-86.9396807,17.32377,0.14466166,-0.1762991,-0.016477585,-2.4711876,9.119047,1.3142579,26.400002,-57.281254,10.05,0,
2022-04-15 10:25:33.543,0.034032285,-0.029006794,0.026116667,40.4402941,-86.9396807,17.32377,-0.017071247,0.035892487,-0.033195972,-3.5694933,8.483154,2.079961,26.362501,-57.3375,10.03125,0,
2022-04-15 10:25:33.743,-0.02052027,0.083590254,0.030213151,40.4401817,-86.9395404,17.606926,0.0086658,0.012500763,0.08994377,-2.3048863,9.798609,1.7312071,26.343752,-57.45,9.95625,0,
2022-04-15 10:25:33.942,0.2094771,0.15985428,0.17379445,40.4401817,-86.9395404,17.606926,-0.10154748,0.26547146,0.13730109,-2.0668006,9.693923,1.4937196,26.325,-57.412502,9.88125,0,
2022-04-15 10:25:34.143,-0.10160416,0.010351121,0.027509438,40.4401817,-86.9395404,17.606926,0.09480786,-0.019324303,0.04272425,-2.5579274,9.053245,2.1248264,26.268751,-57.412502,9.75,0,
2022-04-15 10:25:34.343,-0.106434196,0.25612208,-0.027104761,40.4401817,-86.9395404,17.606926,4.4178963E-4,-0.09911728,0.26045537,-1.805983,9.35474,1.9800607,26.250002,-57.468754,9.675,0,
2022-04-15 10:25:34.543,-0.12465627,0.12774764,0.091157615,40.4401817,-86.9395404,17.606926,0.08363271,0.030352592,0.17959023,-3.269792,9.234501,2.5112674,26.325,-57.43125,9.618751,0,
2022-04-15 10:25:34.744,-0.045594685,0.25843388,-0.008449927,40.4400667,-86.9393967,17.570362,-0.060250998,-0.05363083,0.24986374,-3.7615173,9.834501,2.3114667,26.400002,-57.43125,9.58125,0,
2022-04-15 10:25:34.943,0.1612189,0.13145366,-0.056057487,40.4400667,-86.9393967,17.570362,-0.20355248,0.01681614,0.06853938,-2.909074,9.313464,1.4183456,26.493752,-57.468754,9.6,0,
2022-04-15 10:25:35.143,-0.1585235,0.084223576,-0.08614129,40.4400667,-86.9393967,17.570362,0.04560089,-0.17188454,0.08955383,-1.3776677,8.55793,1.7162521,26.493752,-57.525,9.543751,0,
2022-04-15 10:25:35.343,-0.16351399,-0.06019099,-0.08070653,40.4400667,-86.9393967,17.570362,0.09937692,-0.15964413,-0.03887558,-1.9728823,9.255438,1.7282162,26.7,-57.45,9.543751,0,
2022-04-15 10:25:35.543,0.17565097,0.1732924,-0.105816245,40.4400667,-86.9393967,17.570362,-0.24807096,-0.0714674,0.073714375,-2.8277183,8.308478,2.5465615,26.868752,-57.393753,9.543751,0,
2022-04-15 10:25:35.743,0.116605625,0.07885196,-0.17458811,40.4399497,-86.939258,17.257576,-0.19214177,-0.11565304,-0.0011951923,-2.292324,8.099107,2.1864417,26.94375,-57.45,9.543751,0,
2022-04-15 10:25:35.943,-0.3636586,-0.29352865,-0.31033945,40.4399497,-86.939258,17.257576,0.30082965,-0.39865208,-0.25552928,-2.292324,8.099107,2.1864417,26.94375,-57.506252,9.50625,0,
2022-04-15 10:25:36.143,0.003711164,0.22349805,0.0031062327,40.4399497,-86.939258,17.257576,-0.096003056,-0.032422066,0.1992662,-4.17727,9.498908,2.2157538,27.13125,-57.581253,9.450001,0,
2022-04-15 10:25:36.342,0.48172683,0.43061045,0.6733872,40.4399497,-86.939258,17.257576,-0.56325006,0.67064667,0.32236433,-4.3926244,9.969695,2.076372,27.225,-57.6375,9.375,1,
2022-04-15 10:25:36.543,0.27578342,0.28618827,0.8030859,40.4399497,-86.939258,17.257576,-0.28792548,0.79401207,0.29925084,-3.8027935,8.776276,1.8053846,27.31875,-57.693752,9.243751,0,
2022-04-15 10:25:36.743,0.3387024,0.12323354,0.33417898,40.4398379,-86.9391194,16.933275,-0.38308,0.30753326,0.015949965,-5.0679984,9.966704,2.0033908,27.50625,-57.61875,9.1875,0,
2022-04-15 10:25:36.941,0.29345492,0.3192292,0.16329548,40.4398379,-86.9391194,16.933275,-0.4156983,0.10105038,0.17796707,-5.0679984,9.966704,2.0033908,27.468752,-57.600002,9.09375,0,
2022-04-15 10:25:37.141,0.33680406,0.027172234,0.058183055,40.4398379,-86.9391194,16.933275,-0.28499508,0.18112087,-0.05944419,-2.673381,8.443074,2.2073789,27.300001,-57.750004,9.0375,0,
2022-04-15 10:25:37.34,-0.63775283,-0.3026468,-0.03734508,40.4398379,-86.9391194,16.933275,0.60552883,-0.33146763,-0.15225804,-2.140978,9.044869,2.3802602,27.31875,-57.73125,9.01875,0,
2022-04-15 10:25:37.542,-0.39891824,-0.023426339,0.2224082,40.4398379,-86.9391194,16.933275,0.436718,0.019863129,0.13428617,-2.736791,9.333803,2.079961,27.300001,-57.675003,8.962501,0,
2022-04-15 10:25:37.741,2.605226E-4,0.0348243,0.25510943,40.4397292,-86.9389852,16.603107,0.1363957,0.20192814,0.08315563,-1.8185452,8.967103,1.8185452,26.98125,-57.693752,8.925,0,
2022-04-15 10:25:37.94,-0.07462369,-0.1405044,0.25378028,40.4397292,-86.9389852,16.603107,0.24196386,0.15675259,-0.08122039,-2.1690936,9.293125,1.4195421,26.75625,-57.693752,8.887501,0,
2022-04-15 10:25:38.14,-0.39306343,-0.22661947,-0.09351587,40.4397292,-86.9389852,16.603107,0.33331418,-0.28586292,-0.14759564,-2.0691934,8.925827,1.8065811,26.587502,-57.693752,8.775001,0,
2022-04-15 10:25:38.34,-0.0845893,0.15108988,0.1843934,40.4397292,-86.9389852,16.603107,0.0908854,0.112029076,0.20778298,-2.7912276,9.945169,2.5633113,26.41875,-57.73125,8.6625,0,
2022-04-15 10:25:38.54,0.2946867,0.2797513,0.7174111,40.4397292,-86.9389852,16.603107,-0.11651349,0.73326397,0.35850835,-2.8295128,9.543773,2.5794628,26.362501,-57.768753,8.625,1,
2022-04-15 10:25:38.74,0.73802245,0.15532944,0.4003565,40.4396209,-86.9388568,16.273369,-0.429384,0.7309351,0.102240086,-1.6103697,8.076973,1.9992033,26.41875,-57.693752,8.7375,0,
2022-04-15 10:25:38.939,-0.22140165,-0.37476933,-0.2863676,40.4396209,-86.9388568,16.273369,0.18301272,-0.32145977,-0.366943,-2.0817556,8.203793,2.024328,26.41875,-57.750004,8.700001,0,
2022-04-15 10:25:39.14,-0.0020358702,0.12285989,-0.31302503,40.4396209,-86.9388568,16.273369,-0.06371522,-0.32923222,0.025097609,-3.7357943,8.73799,2.6626134,26.325,-58.125004,9.0375,0,
2022-04-15 10:25:39.339,0.29191986,0.24087587,0.35054433,40.4396209,-86.9388568,16.273369,-0.19234037,0.41931534,0.23086691,-2.4717858,9.162716,2.1744776,26.2875,-58.237503,9.431251,0,
2022-04-15 10:25:39.539,-0.0022810064,-0.16947488,0.30630347,40.4396209,-86.9388568,16.273369,0.14182472,0.3106823,-0.07688308,-2.9138598,8.904889,2.4729822,26.362501,-58.256252,9.46875,0,
2022-04-15 10:25:39.741,-0.306784,-0.1373591,0.18222825,40.4395167,-86.9387236,15.93331,0.37569118,-0.05219364,-0.048197985,-1.8514465,9.23809,1.3298112,26.306252,-58.350002,9.637501,0,
2022-04-15 10:25:39.939,-0.18548904,-0.1502702,0.2447789,40.4395167,-86.9387236,15.93331,0.31719804,0.117295265,-0.050311565,-1.669592,8.857632,2.2624137,26.23125,-58.4625,9.712501,0,
2022-04-15 10:25:40.139,-0.01505614,-0.005006999,0.175416,40.4395167,-86.9387236,15.93331,0.08335328,0.14974499,0.04063487,-2.3856442,9.487542,2.3994029,25.95,-58.593754,9.900001,1,
2022-04-15 10:25:40.338,-0.13175036,-0.06232247,0.11194567,40.4395167,-86.9387236,15.93331,0.17589664,0.053162575,-0.0028624535,-2.9336007,9.896714,1.7892331,25.875002,-58.725002,9.806251,0,
2022-04-15 10:25:40.538,0.20306098,0.14136088,0.1738689,40.4395167,-86.9387236,15.93331,-0.21400428,0.19129944,0.095151186,-3.3601213,8.916854,2.0033908,25.781252,-58.74375,9.918751,0,
2022-04-15 10:25:40.738,0.0967101,-0.10436021,-0.16290882,40.4394139,-86.9385992,15.583282,-0.121334314,-0.08200455,-0.1591742,-2.1188445,9.490533,2.464009,25.7625,-58.425003,9.637501,0,
2022-04-15 10:25:40.938,-0.17157666,0.014687361,-0.08815682,40.4394139,-86.9385992,15.583282,0.121156454,-0.14616776,0.03717518,-2.6542385,9.012567,2.5609183,25.837502,-58.275,9.28125,0,
2022-04-15 10:25:41.138,0.004125553,0.01787368,0.113182604,40.4394139,-86.9385992,15.583282,0.030819178,0.09928417,0.048369646,-2.295315,9.179466,2.8582265,25.743752,-58.312504,9.243751,0,
2022-04-15 10:25:41.338,0.07345308,0.19563138,-0.0247492,40.4394139,-86.9385992,15.583282,-0.13850856,-0.025929451,0.15627718,-2.3778675,9.15135,2.8755746,25.743752,-58.237503,9.168751,0,
2022-04-15 10:25:41.538,-0.04464849,0.3224377,-0.011877157,40.4394139,-86.9385992,15.583282,-0.06703925,-0.074863434,0.30984163,-2.129014,9.439087,2.6350958,25.743752,-58.18125,9.13125,0,
2022-04-15 10:25:41.738,-0.24101272,0.35042554,0.22828197,40.4393132,-86.9384725,15.015466,0.14764023,0.046645164,0.45719194,-2.7523441,9.147162,3.2799616,25.85625,-58.10625,8.925,0,
2022-04-15 10:25:41.937,-0.1875153,0.24976887,0.061138578,40.4393132,-86.9384725,15.015466,0.099615574,-0.08100414,0.2912035,-2.3114667,9.275179,3.4941192,25.85625,-57.99375,8.94375,0,
2022-04-15 10:25:42.137,0.05057253,0.32553917,-0.008878291,40.4393132,-86.9384725,15.015466,-0.16545558,-0.063355446,0.27788973,-2.6171498,8.688937,3.1393833,25.9125,-57.956253,8.887501,0,
2022-04-15 10:25:42.337,-0.25971767,-0.08318445,-0.19596769,40.4393132,-86.9384725,15.015466,0.2356255,-0.23090363,-0.06277251,-3.00718,8.662018,3.4462628,25.893751,-57.937504,8.8125,0,
2022-04-15 10:25:42.538,-0.2398754,0.124247134,0.111839116,40.4393132,-86.9384725,15.015466,0.2082963,-0.032711983,0.20255399,-2.0865414,8.792427,3.0035906,25.9125,-58.0125,8.887501,0,
2022-04-15 10:25:42.737,0.1271242,0.039789915,-0.035263192,40.4392158,-86.9383576,13.721193,-0.13725638,0.010197639,-0.006632328,-2.3772693,8.837293,3.2267213,26.025002,-57.956253,8.90625,0,
2022-04-15 10:25:42.937,-0.053303413,0.07025216,-0.08120974,40.4392158,-86.9383576,13.721193,-0.010022402,-0.110705376,0.044894457,-1.655235,8.653045,3.359523,26.00625,-58.0125,8.83125,0,
2022-04-15 10:25:43.137,0.090868436,0.12147975,0.06088411,40.4392158,-86.9383576,13.721193,-0.115736246,0.052718163,0.10269952,-2.9455647,8.949157,3.484548,26.025002,-58.068752,8.793751,0,
2022-04-15 10:25:43.337,-0.026192646,0.029411508,0.059068035,40.4392158,-86.9383576,13.721193,0.025881052,0.037890434,0.05417204,-2.8055844,8.885747,3.441477,26.1,-58.125004,8.775001,0,
2022-04-15 10:25:43.536,0.017929152,0.15256032,0.06203953,40.4392158,-86.9383576,13.721193,-0.05317521,0.027736664,0.15442824,-2.5908287,9.09811,3.385844,26.1375,-58.2,8.681251,0,
2022-04-15 10:25:43.736,0.079633206,0.23006648,0.029014643,40.4391265,-86.9382574,12.392546,-0.14960337,-0.0071868896,0.19411612,-2.6578279,8.781659,3.5988052,26.19375,-58.237503,8.681251,0,
2022-04-15 10:25:43.936,-0.06483973,0.21334855,0.07595885,40.4391265,-86.9382574,12.392546,0.018586397,-0.016823769,0.23422861,-1.7234305,9.130413,3.4863427,26.268751,-58.312504,8.775001,0,
2022-04-15 10:25:44.136,-0.058257006,0.06271402,0.043726444,40.4391265,-86.9382574,12.392546,0.03637743,0.0074739456,0.08865523,-3.0670004,8.799007,3.4163525,26.325,-58.312504,8.71875,0,
2022-04-15 10:25:44.336,-0.08177139,-0.06671408,-0.08237471,40.4391265,-86.9382574,12.392546,0.08832121,-0.0797987,-0.061273575,-3.2153554,8.838489,3.4977086,26.306252,-58.350002,8.625,0,
2022-04-15 10:25:44.536,-0.0531753,-0.014004638,-0.03115045,40.4391265,-86.9382574,12.392546,0.04020238,-0.047462463,-0.011188269,-2.1738794,8.830712,3.2039895,26.38125,-58.350002,8.6625,0,
2022-04-15 10:25:44.736,0.00969371,-0.039044213,-0.03805434,40.4390473,-86.9381703,10.725959,-0.0013427734,-0.018338203,-0.05223465,-2.7846475,8.715857,4.124628,26.550001,-58.331253,8.700001,0,
2022-04-15 10:25:44.935,-0.051816717,0.1788936,0.021645889,40.4390473,-86.9381703,10.725959,-0.013772726,-0.051962852,0.17962909,-2.480759,8.906684,3.9780676,26.643751,-58.275,8.7375,0,
2022-04-15 10:25:45.136,0.06682045,0.25230595,0.11434442,40.4390473,-86.9381703,10.725959,-0.11978459,0.061566353,0.2511158,-2.5405796,9.02154,3.738187,26.7,-58.29375,8.75625,0,
2022-04-15 10:25:45.335,0.01219015,0.08463542,-0.0036453884,40.4390473,-86.9381703,10.725959,-0.04406953,-0.02807331,0.067785025,-2.748755,8.979665,4.6265225,26.737501,-58.350002,8.681251,0,
2022-04-15 10:25:45.535,2.0497292E-4,0.059417844,0.044524238,40.4390473,-86.9381703,10.725959,-0.010108709,0.026057243,0.06878781,-2.6709883,8.95454,3.4534414,26.812502,-58.275,8.587501,0,
2022-04-15 10:25:45.735,-0.029972047,-0.012100749,-0.0034258862,40.4389824,-86.9380996,8.876037,0.028279543,-0.014490128,-0.0068404675,-1.7910278,8.964112,3.6897326,26.812502,-58.312504,8.493751,0,
2022-04-15 10:25:45.936,-0.0684787,0.01875317,0.0027405303,40.4389824,-86.9380996,8.876037,0.054394007,-0.030187607,0.034329653,-2.3694925,8.857632,3.60718,26.868752,-58.36875,8.53125,0,
2022-04-15 10:25:46.135,-0.03542315,0.18105288,0.04700683,40.4389824,-86.9380996,8.876037,-0.018923044,-0.032136917,0.18669152,-2.012364,8.678169,4.2370906,26.925001,-58.275,8.55,0,
2022-04-15 10:25:46.335,-0.012713805,0.10698224,-0.021694079,40.4389824,-86.9380996,8.876037,-0.033872366,-0.050411224,0.09159064,-2.1038892,8.982058,3.6466618,26.868752,-58.256252,8.606251,0,
2022-04-15 10:25:46.538,0.048097692,0.08917709,0.027054058,40.4389824,-86.9380996,8.876037,-0.07130575,0.016905785,0.075016975,-2.906083,8.952746,3.7106698,26.925001,-58.2,8.53125,0,
2022-04-15 10:25:46.735,0.031816147,0.04971809,-0.031137519,40.4389297,-86.9380424,6.8891172,-0.05349517,-0.033465385,0.02172637,-3.117848,8.754142,3.7896328,26.906252,-58.18125,8.606251,0,
2022-04-15 10:25:46.935,-0.022394434,0.029701026,-0.017309722,40.4389297,-86.9380424,6.8891172,0.0040712357,-0.03384304,0.022833347,-2.2492533,8.834899,4.599603,26.98125,-58.143753,8.700001,0,
2022-04-15 10:25:47.134,0.10494092,0.058228333,-0.018170144,40.4389297,-86.9380424,6.8891172,-0.11967397,0.008669853,0.018337488,-2.510071,8.885747,3.8733816,27.018751,-58.2,8.775001,0,
2022-04-15 10:25:47.334,-0.11607991,0.064148456,0.06499703,40.4389297,-86.9380424,6.8891172,0.09769225,-0.0046463013,0.11067438,-2.5178475,8.963513,3.7441692,27.018751,-58.237503,8.83125,0,
2022-04-15 10:25:47.534,0.044889726,0.10466696,-0.05487168,40.4389297,-86.9380424,6.8891172,-0.091849804,-0.065779686,0.05672574,-2.9629126,8.694321,3.8602211,27.187502,-58.143753,8.981251,0,
2022-04-15 10:25:47.736,0.05663745,0.061492298,-0.06011438,40.438892,-86.9380036,4.7291236,-0.09085202,-0.044711113,0.018699408,-2.347359,8.969496,3.8416767,27.35625,-58.162502,9.150001,0,
2022-04-15 10:25:47.935,-0.07507667,-0.017247355,0.05075194,40.438892,-86.9380036,4.7291236,0.086218834,0.022299767,0.024057627,-2.6979074,8.851051,3.749553,27.13125,-57.881252,8.83125,0,
2022-04-15 10:25:48.135,0.07543294,0.044377234,-0.0527752,40.438892,-86.9380036,4.7291236,-0.09707451,-0.031956673,2.7418137E-5,-2.7098715,8.813962,3.5330026,27.16875,-58.256252,10.106251,0,
2022-04-15 10:25:48.334,0.07802461,-0.16658035,-0.045898892,40.438892,-86.9380036,4.7291236,-0.024192333,0.025166512,-0.18634629,-2.4861426,9.086744,3.2350962,27.112501,-58.29375,9.7875,0,
2022-04-15 10:25:48.535,0.09317172,-0.27558744,-0.04585944,40.438892,-86.9380036,4.7291236,-9.10759E-5,0.058810234,-0.28857207,-2.312663,8.864211,3.2961133,26.906252,-58.18125,9.731251,0,
2022-04-15 10:25:48.735,0.1362262,-0.24691568,-0.15806983,40.4388669,-86.9379819,2.838633,-0.07080674,-0.03482151,-0.31350422,-2.778067,9.098708,3.4923246,27.206251,-57.91875,9.918751,0,
2022-04-15 10:25:48.935,0.09727152,0.0357041,0.046708282,40.4388669,-86.9379819,2.838633,-0.08146453,0.075743675,0.023337126,-2.3198416,8.693125,2.9108686,26.962502,-57.91875,10.106251,0,
2022-04-15 10:25:49.135,-0.071896724,-0.120795384,0.03214685,40.4388669,-86.9379819,2.838633,0.11423063,0.0030326843,-0.08795595,-2.8319056,9.367901,1.692922,26.962502,-58.2,10.21875,0,
2022-04-15 10:25:49.334,0.58912987,-1.0925099,-0.16666839,40.4388669,-86.9379819,2.838633,-0.2385037,0.16517353,-1.2183037,-2.4191437,9.11785,1.4787644,27.35625,-57.600002,10.387501,0,
2022-04-15 10:25:49.533,0.66014385,-1.6150476,0.025067687,40.4388669,-86.9379819,2.838633,-0.028839111,0.33853817,-1.7115365,-2.664408,9.316455,1.4488541,27.6375,-57.075,10.293751,0,
2022-04-15 10:25:49.733,0.63220894,-1.551098,-0.049255386,40.4388511,-86.9379667,1.8498266,-0.06508613,0.28008556,-1.6508588,-2.5507488,9.229117,1.5086746,28.125002,-57.468754,10.837501,0,
2022-04-15 10:25:49.932,0.578588,-1.3874271,-0.008908093,40.4388511,-86.9379667,1.8498266,-0.081922054,0.28268337,-1.4741697,-2.4538395,9.497113,1.410569,26.75625,-58.218754,10.59375,0,
2022-04-15 10:25:50.133,0.4546573,-0.9195231,-0.041665323,40.4388511,-86.9379667,1.8498266,-0.10070586,0.1670599,-1.0079292,-2.8307092,9.201599,1.4081762,27.54375,-56.568752,10.78125,0,
2022-04-15 10:25:50.333,0.2715943,-0.76241887,0.06955664,40.4388511,-86.9379667,1.8498266,0.028094769,0.118144035,-0.80320406,-2.7290142,9.506684,0.50129634,27.581251,-56.68125,10.762501,0,
2022-04-15 10:25:50.533,0.47327423,-0.54060495,0.044098366,40.4388511,-86.9379667,1.8498266,-0.19394565,0.25797558,-0.6434443,-2.5507488,9.396614,0.38763726,27.54375,-57.15,11.08125,0,
2022-04-15 10:25:50.732,0.1585973,-1.1399417,0.05317437,40.4388411,-86.9379557,2.1653314,0.128541,-0.07549572,-1.1424646,-2.5914268,9.650253,-0.08135597,27.075,-57.375004,10.81875,0,
2022-04-15 10:25:50.932,0.663109,-1.295531,0.22568038,40.4388411,-86.9379557,2.1653314,-0.042319775,0.34032822,-1.4322821,-2.6715865,9.466006,-0.2536392,27.281252,-57.131252,10.78125,0,
2022-04-15 10:25:51.133,0.66784143,-1.4238453,0.124508604,40.4388411,-86.9379557,2.1653314,-0.119032145,0.28269577,-1.5475028,-2.4538395,9.672985,-0.31465617,26.587502,-57.112503,10.837501,0,
2022-04-15 10:25:51.332,0.49877477,-1.5358382,0.15085761,40.4388411,-86.9379557,2.1653314,0.06095004,0.15162754,-1.6135762,-2.7984061,9.780663,0.014356935,27.018751,-57.750004,10.9875,0,
2022-04-15 10:25:51.532,0.36843675,-0.8228779,0.08046969,40.4388411,-86.9379557,2.1653314,-0.04999852,0.13604069,-0.89349985,-2.7792635,9.85484,-0.21774685,27.000002,-56.925003,11.962501,0,
2022-04-15 10:25:51.732,0.26210812,-0.6447228,0.036151357,40.4388206,-86.9379364,3.6908925,-0.042316437,0.06965923,-0.6921214,-2.754139,9.8321085,-0.20937198,26.362501,-56.2125,12.187501,0,
2022-04-15 10:25:51.931,0.15832451,-0.3904284,0.12075084,40.4388206,-86.9379364,3.6908925,0.04060483,0.12801552,-0.41718704,-2.9599216,9.707682,0.19860429,26.212502,-56.100002,11.793751,0,
2022-04-15 10:25:52.133,0.031419255,-0.1220393,-0.06683521,40.4388206,-86.9379364,3.6908925,-0.03060484,-0.05910015,-0.12616743,-2.9336007,9.689735,0.039481573,25.29375,-56.250004,12.450001,0,
2022-04-15 10:25:52.331,0.046617698,-0.051360264,-0.06913161,40.4388206,-86.9379364,3.6908925,-0.063730955,-0.04083252,-0.06213966,-2.9706893,9.656236,-0.09571291,25.781252,-55.93125,12.525001,0,
2022-04-15 10:25:52.531,0.08326495,-0.046524674,0.010871947,40.4388206,-86.9379364,3.6908925,-0.052448988,0.039915085,-0.069797456,-3.138187,9.556933,0.32063824,25.575,-56.456253,11.868751,0,
2022-04-15 10:25:52.731,-0.100598,-0.24530411,-0.08935104,40.4387889,-86.9379004,5.1062975,0.10169244,-0.1536684,-0.21052875,-2.8402805,9.5964155,0.45702913,25.44375,-56.625004,11.15625,0,
2022-04-15 10:25:52.931,1.0181285,0.39676276,-0.008327586,40.4387889,-86.9379004,5.1062975,-1.0315206,0.35881138,0.03599173,-3.301497,9.382855,0.3792624,25.143751,-56.756252,11.2875,0,
2022-04-15 10:25:53.131,-0.32166013,0.20226318,-0.04524193,40.4387889,-86.9379004,5.1062975,0.19448304,-0.16972542,0.28247496,-2.609373,8.785847,0.5162515,24.91875,-56.850002,11.418751,0,
2022-04-15 10:25:53.33,0.5729044,0.028056309,-0.66872984,40.4387889,-86.9379004,5.1062975,-0.74629784,-0.42665577,-0.19290076,-3.1130621,9.515059,0.6257231,24.656252,-57.05625,11.64375,0,
2022-04-15 10:25:53.53,1.0221568,0.31189024,-0.29513192,40.4387889,-86.9379004,5.1062975,-1.1057391,0.073394775,-0.03372112,-3.2590244,9.650253,0.07477571,24.112501,-57.43125,12.356251,0,
2022-04-15 10:25:53.73,0.5560856,0.31989688,-0.04189107,40.4387489,-86.9378503,6.4122543,-0.6316135,-0.09616566,0.07166979,-4.0480576,9.438489,0.7256235,23.41875,-57.975002,12.76875,0,
2022-04-15 10:25:53.931,0.70958996,1.3252802,-0.6421819,40.4387489,-86.9378503,6.4122543,-1.1989048,-0.5527773,0.9640268,-3.1770704,9.313464,0.8787641,22.875,-58.18125,12.88125,0,
2022-04-15 10:25:54.133,1.4074175,0.97897,0.016842077,40.4387489,-86.9378503,6.4122543,-1.6568236,-0.2888031,0.33319378,-4.168297,9.527621,0.6023931,22.35,-58.2,12.918751,0,
2022-04-15 10:25:54.33,1.2606121,0.8629971,-0.18717033,40.4387489,-86.9378503,6.4122543,-1.4789953,-0.24353886,0.34957293,-3.4540396,9.209376,0.7722835,21.581251,-58.500004,12.750001,0,
2022-04-15 10:25:54.53,1.0396782,0.8188981,-0.18541974,40.4387489,-86.9378503,6.4122543,-1.2242756,-0.38637924,0.37116817,-3.586243,9.020942,0.29072794,20.90625,-58.55625,12.543751,0,
2022-04-15 10:25:54.732,0.88167745,0.5415154,-0.03451784,40.4387006,-86.9377867,7.21211,-0.9475951,-0.39986706,0.11813256,-4.197011,9.065806,0.73818576,20.23125,-58.706253,12.375001,0,
2022-04-15 10:25:54.929,0.7824548,0.64392704,0.3880672,40.4387006,-86.9377867,7.21211,-1.0474465,-0.104159355,0.2635913,-4.3968115,9.118449,0.6239285,19.59375,-58.687504,12.0375,0,
2022-04-15 10:25:55.129,0.5223874,0.39867485,0.14991523,40.4387006,-86.9377867,7.21211,-0.61483455,-0.24665928,0.12426782,-4.5206404,8.866006,0.4319045,19.2,-58.518753,11.175,0,
2022-04-15 10:25:55.33,1.0763723,0.7138368,0.31993425,40.4387006,-86.9377867,7.21211,-1.2856832,-0.2577858,0.2259723,-4.0127635,8.741579,0.8141579,18.88125,-58.218754,10.44375,0,
2022-04-15 10:25:55.529,0.41276816,0.49662757,0.2669388,40.4387006,-86.9377867,7.21211,-0.6208446,-0.19663334,0.25329864,-5.0739803,9.215957,0.7052845,18.581251,-58.143753,9.9375,0,
2022-04-15 10:25:55.729,0.38200545,0.40330976,0.24171488,40.4386644,-86.9377043,8.130567,-0.5485616,-0.16720963,0.19527972,-4.2741795,8.468798,0.29192436,18.337502,-58.162502,9.375,0,
2022-04-15 10:25:55.929,0.23521131,0.012099281,-0.2322634,40.4386644,-86.9377043,8.130567,-0.034692287,-0.31538486,-0.09351936,-3.9918263,8.66142,0.25004998,18.2625,-58.162502,8.606251,0,
2022-04-15 10:25:56.129,0.2982694,0.39710847,0.30015978,40.4386644,-86.9377043,8.130567,-0.5229044,-0.034897804,0.24921644,-4.4243293,8.845667,0.94277215,18.112501,-58.125004,7.9125004,0,
2022-04-15 10:25:56.328,0.08647396,0.48728406,0.15604207,40.4386644,-86.9377043,8.130567,-0.30203438,-0.06437206,0.41701812,-4.371089,9.036494,1.2311072,18.0375,-58.031254,7.1250005,0,
2022-04-15 10:25:56.528,-0.1406717,0.09172614,-0.008636214,40.4386644,-86.9377043,8.130567,0.062824726,0.054572105,0.14612234,-4.8532424,9.238688,0.44506502,18.056252,-58.031254,6.2812505,0,
2022-04-15 10:25:56.728,-0.3888513,0.15011634,0.025349945,40.4386438,-86.9376036,8.8722,0.22560787,0.1673975,0.30896938,-4.70728,9.420543,1.2173486,18.0,-57.881252,5.3812504,0,
2022-04-15 10:25:56.928,0.022111977,0.030703343,0.11490504,40.4386438,-86.9376036,8.8722,-0.116445065,0.026745796,0.018974006,-4.7216372,9.565309,0.11425728,18.2625,-57.562504,4.4437504,0,
2022-04-15 10:25:57.128,-0.27082542,0.22751474,-0.020868773,40.4386438,-86.9376036,8.8722,0.11219168,0.12662125,0.31132776,-3.6311083,9.199206,-0.14237295,18.35625,-57.393753,3.7687502,0,
2022-04-15 10:25:57.328,-0.13125075,-0.2131427,-0.21928057,40.4386438,-86.9376036,8.8722,0.20343947,-0.1832962,-0.18909106,-3.0963125,9.315857,1.3423735,18.31875,-57.281254,2.9625,0,
2022-04-15 10:25:57.529,-0.5829807,0.16982533,0.59311235,40.4386438,-86.9376036,8.8722,0.7179954,0.28437614,0.35228157,-2.4197419,9.495318,0.7393822,18.31875,-57.281254,2.9625,0,
2022-04-15 10:25:57.728,-1.0002491,-0.18555914,0.47940922,40.4386412,-86.9374932,9.752875,1.0985277,0.19646263,0.13929492,-2.667399,9.55813,1.0331012,18.225,-57.093754,2.2687502,0,
2022-04-15 10:25:57.928,-0.8666137,-0.17485982,0.9547346,40.4386412,-86.9374932,9.752875,1.2783248,0.2194004,0.10422519,-2.400001,9.845867,0.73399836,18.206251,-57.05625,1.1625,0,
2022-04-15 10:25:58.128,0.077212974,0.23925507,0.9962972,40.4386412,-86.9374932,9.752875,0.91149473,0.4116192,0.23571146,-2.0285153,9.680164,0.17288144,18.16875,-56.943752,0.84375006,0,
2022-04-15 10:25:58.328,-0.0927878,-0.049762644,0.7689632,40.4386412,-86.9374932,9.752875,0.720104,0.28947353,0.006758511,-2.0249262,9.613165,0.4642076,18.13125,-56.906254,0.58125,0,
2022-04-15 10:25:58.528,-0.11693743,-0.004633177,0.40676117,40.4386412,-86.9374932,9.752875,0.40176105,0.12815666,0.036254704,-2.5022943,9.508479,0.2656033,18.075,-56.9625,0.35625002,0,
2022-04-15 10:25:58.728,-0.18702734,-0.20113444,-0.24069336,40.4386459,-86.9373687,10.857991,0.32040215,-0.103824615,-0.14117542,-3.3768709,9.631111,0.5712864,18.075,-56.9625,0.35625002,0,
2022-04-15 10:25:58.927,-0.051747765,0.2408134,0.21115948,40.4386459,-86.9373687,10.857991,0.15817618,0.11850643,0.25728148,-2.2360928,9.535996,0.5282156,17.962502,-56.925003,-0.0,0,
2022-04-15 10:25:59.126,-0.076003455,0.054197308,0.20502344,40.4386459,-86.9373687,10.857991,0.19004035,0.08773804,0.08327776,-2.2785654,9.644272,0.63948184,17.925001,-56.98125,0.056250002,0,
2022-04-15 10:25:59.327,0.001832651,-0.003522413,-0.0415475,40.4386459,-86.9373687,10.857991,-0.04128623,0.005045891,-0.0034564734,-2.1667008,9.667004,-0.09092726,17.925001,-56.98125,0.056250002,0,
2022-04-15 10:25:59.527,0.043135338,0.03630405,0.028312128,40.4386459,-86.9373687,10.857991,-0.0173347,0.053786278,0.02804929,-2.2211375,9.752547,0.8213364,17.94375,-56.906254,0.056250002,0,
2022-04-15 10:25:59.726,-0.01902586,0.07824411,0.1597136,40.4386535,-86.9372329,11.9398575,0.15625978,0.019163132,0.08490121,-1.253839,8.962317,0.2727818,17.868752,-56.850002,-0.056250002,0,
2022-04-15 10:25:59.928,-0.10958365,-0.088637605,0.16620143,40.4386535,-86.9372329,11.9398575,0.20959902,0.032164574,-0.05021757,-2.3748765,9.266804,0.48215377,17.625,-57.05625,-0.0,0,
2022-04-15 10:26:00.126,-0.079993844,-0.029054407,-0.12031394,40.4386535,-86.9372329,11.9398575,0.1192348,-0.08592987,-0.010850728,-3.2799616,9.74477,0.7573284,17.625,-57.05625,-0.0,0,
2022-04-15 10:26:00.327,0.014889492,0.083607644,0.29693282,40.4386535,-86.9372329,11.9398575,0.26406813,0.13357162,0.088361084,-2.160719,9.9140625,0.3379862,17.475,-57.037502,-0.13125001,0,
2022-04-15 10:26:00.526,-0.07034011,0.06372966,0.18755753,40.4386535,-86.9372329,11.9398575,0.14939094,0.119226456,0.087489605,-2.5794628,9.252447,0.37268212,17.475,-56.98125,-0.20625001,0,
2022-04-15 10:26:00.726,-0.09518412,-0.13867949,-0.14619827,40.4386545,-86.9370811,12.970824,0.19550824,-0.004119873,-0.10689014,-3.8985064,9.346964,1.1216356,17.475,-56.98125,-0.20625001,0,
2022-04-15 10:26:00.925,-0.047427814,0.018671516,-0.29428643,40.4386545,-86.9370811,12.970824,-0.20066476,-0.22025013,-0.020641804,-1.1006985,9.278768,1.4291133,17.475,-56.943752,-0.24375,0,
2022-04-15 10:26:01.125,-0.013361774,0.20023116,-0.1301254,40.4386545,-86.9370811,12.970824,-0.13844037,-0.015888214,0.19438493,-2.3904297,9.985249,0.26739794,17.38125,-56.98125,-0.1875,1,
2022-04-15 10:26:01.325,0.015861306,0.1611672,0.086304195,40.4386545,-86.9370811,12.970824,0.06373358,0.0751524,0.15480638,-2.213361,9.196216,0.20398813,17.38125,-56.98125,-0.1875,0,
2022-04-15 10:26:01.526,-0.022538992,-0.11785892,-0.06578823,40.4386545,-86.9370811,12.970824,-0.029242754,-0.07141113,-0.11301386,-2.2372892,9.84826,0.49292147,17.456251,-56.925003,-0.43125,0,
2022-04-15 10:26:01.725,0.16761002,0.15527281,0.012653025,40.4386531,-86.9369168,13.886112,-0.18026233,0.08344841,0.11359894,-2.3395824,9.98824,1.4967105,17.475,-56.943752,-0.3,0,
2022-04-15 10:26:01.926,0.0478959,-0.0022659386,0.07032574,40.4386531,-86.9369168,13.886112,0.069882154,0.047585487,-0.009847164,-1.7910278,10.479366,0.068793654,17.475,-56.943752,-0.3,0,
2022-04-15 10:26:02.127,0.23671399,-0.16029581,-0.14479499,40.4386531,-86.9369168,13.886112,-0.11255002,-0.18654346,-0.23500612,-3.0179477,9.139386,0.60000026,17.362501,-57.075,-0.24375,0,
2022-04-15 10:26:02.325,-0.04160729,0.13074732,-0.14102097,40.4386531,-86.9369168,13.886112,-0.115731955,-0.097922325,0.12542039,-1.9130617,9.8219385,0.7465607,17.362501,-57.075,-0.24375,0,
2022-04-15 10:26:02.524,0.034669053,0.10196751,0.28134137,40.4386531,-86.9369168,13.886112,0.11382079,0.2560768,0.11055225,-2.4598217,9.810573,0.7322037,17.362501,-57.206253,-0.28125,0,
2022-04-15 10:26:02.726,-0.041015394,-0.028908592,0.091101505,40.4386519,-86.9367434,14.8421545,0.09204745,0.04705143,-0.011440456,-2.4598217,9.810573,0.7322037,17.362501,-57.206253,-0.28125,0,
2022-04-15 10:26:02.924,0.020154022,-0.06983354,0.005406474,40.4386519,-86.9367434,14.8421545,0.0053851604,0.006500244,-0.072393954,-2.37368,9.136993,0.36550367,17.475,-57.075,-0.375,0,
2022-04-15 10:26:03.124,-0.19430327,-0.09988712,-0.074555665,40.4386519,-86.9367434,14.8421545,0.07972908,-0.20745754,-0.06240517,-2.1062822,9.793823,0.77826554,17.5125,-57.018753,-0.39375,0,
2022-04-15 10:26:03.324,0.017011274,0.12538496,0.17599581,40.4386519,-86.9367434,14.8421545,0.020748615,0.17284203,0.12915272,-2.565704,9.273384,0.7220342,17.587502,-57.000004,-0.43125,1,
2022-04-15 10:26:03.524,0.06562931,-0.08932787,-0.0892137,40.4386519,-86.9367434,14.8421545,-0.08635831,-0.03170681,-0.108548045,-2.3551357,9.583255,0.71007013,17.6625,-56.9625,-0.375,0,
2022-04-15 10:26:03.723,-0.109190516,0.025140552,-0.026721966,40.4386566,-86.9365594,15.733166,0.05309415,-0.09309292,0.042230308,-1.8981066,9.632906,1.1892328,17.681252,-56.9625,-0.31875002,0,
2022-04-15 10:26:03.923,0.051772572,0.057380173,0.08951575,40.4386566,-86.9365594,15.733166,0.013268471,0.10798359,0.046362102,-2.6189444,9.827921,0.48873404,17.681252,-56.9625,-0.31875002,0,
2022-04-15 10:26:04.123,0.14477858,-0.025918335,-0.09740905,40.4386566,-86.9365594,15.733166,-0.11810422,-0.10662556,-0.076180756,-3.0400813,9.522238,0.7896315,17.587502,-56.906254,-0.112500004,0,
2022-04-15 10:26:04.323,-0.060322754,0.1627051,-0.1425407,40.4386566,-86.9365594,15.733166,-0.029223919,0.13468456,0.17730105,-2.7110682,8.908479,-0.27158538,17.587502,-56.906254,-0.112500004,0,
2022-04-15 10:26:04.523,-0.012203261,-0.26253438,0.09430223,40.4386566,-86.9365594,15.733166,0.033352375,-0.11292744,-0.25318202,-2.6662025,10.147961,-0.2727818,17.60625,-56.925003,-0.0375,0,
2022-04-15 10:26:04.724,-0.1675572,0.10522291,-0.013344977,40.4386607,-86.9363654,16.695404,-0.07931399,-0.11005688,0.14464486,-2.6662025,10.147961,-0.2727818,17.60625,-56.925003,-0.0375,0,
2022-04-15 10:26:04.923,-0.055651564,0.09883881,0.1932028,40.4386607,-86.9363654,16.695404,0.09428811,0.15518379,0.13122982,-2.5088747,9.794421,1.180858,17.456251,-56.98125,-0.0375,0,
2022-04-15 10:26:05.123,0.0106767155,0.09970336,-0.090464786,40.4386607,-86.9363654,16.695404,-0.082071066,-0.06334591,0.0865463,-2.585445,10.3028965,0.85483587,17.41875,-56.9625,-0.075,0,
2022-04-15 10:26:05.323,-0.020272039,0.28732184,-0.08082051,40.4386607,-86.9363654,16.695404,-0.07311463,0.06590366,0.2825026,-2.6841488,9.753743,-0.012562319,17.4375,-56.943752,-0.13125001,0,
2022-04-15 10:26:05.523,0.008267109,-0.02967953,-0.08790772,40.4386607,-86.9363654,16.695404,0.010038614,-0.07976246,-0.047054887,-3.2380872,9.820743,2.0195422,17.493752,-56.943752,-0.112500004,0,
2022-04-15 10:26:05.722,0.0152600445,0.049726784,0.03245414,40.4386643,-86.9361622,17.367968,-0.026845217,0.023360252,0.049925208,-2.5968108,8.948559,2.2588246,17.60625,-56.943752,-0.16875,0,
2022-04-15 10:26:05.922,-0.119435064,-0.1685764,-0.17012605,40.4386643,-86.9361622,17.367968,0.114622355,-0.19748974,-0.13958913,-2.8480573,9.792626,0.68255264,17.60625,-56.906254,-0.1875,0,
2022-04-15 10:26:06.122,-0.07229519,0.033671528,0.083412446,40.4386643,-86.9361622,17.367968,0.08506727,0.0482893,0.06123483,-2.4622145,9.690931,1.3621143,17.60625,-56.906254,-0.1875,0,
2022-04-15 10:26:06.322,0.0053478233,0.004700638,0.079138264,40.4386643,-86.9361622,17.367968,0.04480791,0.06477451,0.01049155,-2.216352,9.467203,0.8817552,17.775002,-56.8875,-0.056250002,0,
2022-04-15 10:26:06.522,0.0014199857,0.0029322067,0.075044036,40.4386643,-86.9361622,17.367968,0.036086082,0.064845085,0.011624575,-2.2331018,9.404391,1.1832508,17.8875,-56.831253,-0.01875,0,
2022-04-15 10:26:06.722,0.013186074,0.010205416,-0.041984003,40.4386655,-86.9359521,18.047663,-0.034754276,-0.028806686,0.0017305613,-2.2331018,9.404391,1.1832508,17.8875,-56.831253,-0.01875,0,
2022-04-15 10:26:06.922,0.05207594,-0.06751519,-0.12743849,40.4386655,-86.9359521,18.047663,0.0125358105,-0.113464355,-0.10236925,-3.4558342,9.055039,1.6941184,17.94375,-56.812504,0.056250002,0,
2022-04-15 10:26:07.121,0.044045582,0.1318325,-0.044021435,40.4386655,-86.9359521,18.047663,-0.09267211,-0.015028954,0.111551404,-2.5064816,9.304491,0.8446664,17.94375,-56.812504,0.056250002,0,
2022-04-15 10:26:07.321,0.06983645,-0.055650435,0.010013678,40.4386655,-86.9359521,18.047663,-0.042849302,0.035821915,-0.07039249,-2.477768,9.189037,1.0438689,17.94375,-56.79375,0.01875,0,
2022-04-15 10:26:07.521,0.032925747,0.030317947,-0.057150844,40.4386655,-86.9359521,18.047663,-0.059298754,-0.039162636,0.014813781,-2.5764718,9.489935,0.9882358,17.925001,-56.737503,-0.09375,0,
2022-04-15 10:26:07.721,0.09202428,0.08823067,-0.0055360748,40.4386687,-86.9357334,18.71473,-0.07081056,0.083621025,0.065399945,-2.1302104,9.457631,0.58564335,17.925001,-56.718754,-0.01875,0,
2022-04-15 10:26:07.921,0.032356925,0.026857398,0.14761975,40.4386687,-86.9357334,18.71473,0.015268087,0.15037537,0.02672112,-2.7637103,9.575478,0.67178494,17.925001,-56.718754,-0.01875,0,
2022-04-15 10:26:08.121,-0.14154848,-0.11614536,-0.056800243,40.4386687,-86.9357334,18.71473,-0.0133366585,-0.1631689,-0.0997498,-1.2574283,9.844072,0.45044887,17.925001,-56.718754,-0.01875,0,
2022-04-15 10:26:08.321,-0.04694429,0.09449549,-0.016989473,40.4386687,-86.9357334,18.71473,0.0120584965,-0.03582859,0.099963546,-2.541776,9.135797,1.4195421,17.925001,-56.718754,0.0375,0,
2022-04-15 10:26:08.521,0.13244964,0.086733446,0.11726461,40.4386687,-86.9357334,18.71473,-0.059837103,0.18114185,0.04923153,-2.6871397,9.139386,0.276371,17.868752,-56.737503,-0.056250002,0,
2022-04-15 10:26:08.721,-0.056204688,-0.13118201,-0.18670283,40.438672,-86.9355056,19.44962,0.022643328,-0.1986723,-0.1234594,-2.7302105,9.520443,0.698106,17.868752,-56.7,-0.0,1,
2022-04-15 10:26:08.921,0.06865175,0.10149265,-0.004099125,40.438672,-86.9355056,19.44962,-0.08666849,0.0317955,0.080673695,-2.3569303,9.337392,1.0540384,17.868752,-56.68125,-0.01875,0,
2022-04-15 10:26:09.12,-0.013314602,-0.009689275,-0.06628204,40.438672,-86.9355056,19.44962,-0.020956993,-0.06354904,-0.013667226,-2.3461626,9.698111,1.1240284,17.868752,-56.68125,-0.01875,0,
2022-04-15 10:26:09.321,0.23977152,0.20022692,0.11955768,40.438672,-86.9355056,19.44962,0.052458525,0.29515553,0.14834607,-1.9531415,9.111869,0.22313072,17.8125,-56.68125,-0.16875,0,
2022-04-15 10:26:09.52,-0.14019144,-0.20513543,-0.16981952,40.438672,-86.9355056,19.44962,0.0624671,-0.23333073,-0.17952013,-2.3748765,9.561121,0.86560357,17.681252,-56.756252,-0.26250002,0,
2022-04-15 10:26:09.72,-0.01464981,0.02321893,-0.06467855,40.4386722,-86.9352671,20.045523,-0.007622957,-0.06753254,0.017840862,-2.7122645,9.632308,1.2891332,17.71875,-56.756252,-0.375,0,
2022-04-15 10:26:09.92,0.08039123,0.0389037,0.011581013,40.4386722,-86.9352671,20.045523,-0.075398445,0.045258522,0.019419253,-2.4867408,9.87458,1.3052847,17.737501,-56.775,-0.39375,0,
2022-04-15 10:26:10.12,0.11426336,0.0912002,0.09897387,40.4386722,-86.9352671,20.045523,0.024512768,0.16188526,0.06604326,-2.2444677,9.316455,0.40677986,17.737501,-56.756252,-0.46875003,0,
2022-04-15 10:26:10.319,0.024862975,-0.03971214,-0.18680438,40.4386722,-86.9352671,20.045523,0.06717467,-0.16977215,-0.061286867,-3.4103706,9.740582,0.87338024,17.6625,-56.756252,-0.50625,0,
2022-04-15 10:26:10.52,0.10473424,0.0853099,0.0012420537,40.4386722,-86.9352671,20.045523,-0.117048025,0.034934044,0.057688475,-2.1050856,8.744571,1.6546369,17.7,-56.737503,-0.50625,0,
2022-04-15 10:26:10.721,0.076923296,-0.1693973,-0.14193423,40.4386744,-86.9350222,20.780968,0.054996967,-0.10342693,-0.20257384,-3.728616,9.38824,1.3130615,17.7,-56.737503,-0.5625,0,
2022-04-15 10:26:10.92,-0.103959695,0.300121,0.061096743,40.4386744,-86.9350222,20.780968,0.04773259,-0.022945404,0.31907392,-1.6905292,9.535996,1.3399807,17.7,-56.737503,-0.5625,0,
2022-04-15 10:26:11.12,-0.037786655,0.29149505,0.21192108,40.4386744,-86.9350222,20.780968,0.032782555,0.14460278,0.33064044,-1.9651057,8.842078,1.939981,17.75625,-56.7,-0.5625,0,
2022-04-15 10:26:11.32,0.07355073,0.22810897,-0.24798007,40.4386744,-86.9350222,20.780968,-0.17278624,-0.26882362,0.12967765,-2.4185455,8.894122,2.4735804,17.737501,-56.68125,-0.50625,0,
2022-04-15 10:26:11.52,-0.443957,0.54955596,0.1335289,40.4386744,-86.9350222,20.780968,0.16313243,0.10541248,0.69225395,-4.025924,9.485747,1.8711873,17.737501,-56.625004,-0.4875,0,
2022-04-15 10:26:11.72,0.025283042,0.20975615,-0.01884554,40.4386814,-86.9347728,20.828657,-0.08463597,-0.06973648,0.18156433,-2.964109,8.880961,2.2037897,17.7,-56.662502,-0.46875003,0,
2022-04-15 10:26:11.919,-0.21795951,0.32820463,-0.049768593,40.4386814,-86.9347728,20.828657,0.079777,-0.15261555,0.3578347,-2.1529422,8.920443,1.4536397,17.7,-56.662502,-0.46875003,1,
2022-04-15 10:26:12.119,-0.06537599,0.3160518,0.24274471,40.4386814,-86.9347728,20.828657,-0.036094427,0.1827097,0.3583324,-2.8570302,9.049057,1.672583,17.7,-56.643753,-0.52500004,0,
2022-04-15 10:26:12.319,0.016162772,0.09852053,0.008605576,40.4386814,-86.9347728,20.828657,-0.045200348,-0.011966705,0.0886302,-3.0640094,9.396016,1.966302,17.681252,-56.662502,-0.50625,0,
2022-04-15 10:26:12.519,-0.13567093,0.05692438,-0.10341135,40.4386814,-86.9347728,20.828657,0.13640499,-0.08788967,0.077524066,-3.6436708,9.720243,2.179263,17.681252,-56.662502,-0.50625,0,
2022-04-15 10:26:12.718,-0.15413556,0.1755027,0.02348266,40.4386884,-86.9345292,20.437994,0.08555031,0.0020780563,0.2186029,-3.6436708,9.720243,2.179263,17.625,-56.7,-0.50625,0,
2022-04-15 10:26:12.918,0.008919623,-0.1334464,-0.14262915,40.4386884,-86.9345292,20.437994,0.051000357,-0.08667469,-0.16768134,-3.0490541,8.36471,3.045465,17.643751,-56.737503,-0.5625,0,
2022-04-15 10:26:13.118,-0.130721,0.11877346,0.014274929,40.4386884,-86.9345292,20.437994,0.090320826,-0.025600433,0.15028524,-2.7332017,9.6376915,1.6235301,17.681252,-56.7,-0.5625,0,
2022-04-15 10:26:13.318,-0.066085264,-0.06512439,0.22940743,40.4386884,-86.9345292,20.437994,0.026113749,0.24594498,-0.008084536,-3.1070802,8.953344,1.3094722,17.7,-56.643753,-0.5625,0,
2022-04-15 10:26:13.518,0.05521093,-0.3356626,-0.21087627,40.4386884,-86.9345292,20.437994,-0.06949663,-0.13326359,-0.37094128,-1.9088743,9.3308115,1.6510476,17.775002,-56.625004,-0.6,0,
2022-04-15 10:26:13.717,-0.10404134,0.10034245,-0.0468245,40.4386943,-86.9342891,20.195562,0.063875675,-0.07717228,0.11423695,-2.8671997,9.752547,1.9962122,17.831251,-56.625004,-0.52500004,0,
2022-04-15 10:26:13.917,0.1483159,-0.030120764,0.2210972,40.4386943,-86.9342891,20.195562,-0.06476474,0.2597618,-0.010871291,-2.2474587,9.316455,2.292324,17.79375,-56.643753,-0.50625,0,
2022-04-15 10:26:14.117,-0.008710813,-0.17993124,-0.0028027575,40.4386943,-86.9342891,20.195562,0.0574255,0.009849548,-0.17048252,-2.1361923,9.078369,1.8203398,17.8125,-56.7,-0.45000002,0,
2022-04-15 10:26:14.317,0.098417014,-0.090774074,-0.05945024,40.4386943,-86.9342891,20.195562,-0.07114148,-0.04247284,-0.12081027,-3.1842487,10.359726,1.0348958,17.868752,-56.662502,-0.41250002,0,
2022-04-15 10:26:14.517,-0.057093386,-0.262292,-0.21720006,40.4386943,-86.9342891,20.195562,-0.114513874,-0.20095539,-0.25639057,-2.2677977,10.237094,0.6334998,17.868752,-56.60625,-0.41250002,0,
2022-04-15 10:26:14.717,0.05300191,0.26722434,0.1329497,40.4386993,-86.9340528,20.1607,0.042846918,0.15494823,0.25699973,-2.2677977,10.237094,0.6334998,17.8875,-56.60625,-0.35625002,0,
2022-04-15 10:26:14.917,0.18371904,-0.06434111,0.038190667,40.4386993,-86.9340528,20.1607,-0.13335681,0.10918808,-0.09820855,-2.2360928,9.01795,1.6731812,17.925001,-56.662502,-0.28125,0,
2022-04-15 10:26:15.116,-0.070424825,-0.12976299,-0.08763669,40.4386993,-86.9340528,20.1607,0.014827967,-0.10133648,-0.13780177,-0.87936234,8.829515,1.902294,17.962502,-56.737503,-0.28125,1,
2022-04-15 10:26:15.317,0.10423565,0.04936387,-0.0151207885,40.4386993,-86.9340528,20.1607,-0.11263776,0.021842003,0.019135356,-2.4969103,9.600004,1.442872,17.925001,-56.831253,-0.22500001,0,
2022-04-15 10:26:15.516,0.040018205,-0.023397528,-0.0025368505,40.4386993,-86.9340528,20.1607,-0.031024933,0.0047254562,-0.034211993,-3.1100712,9.601201,2.452045,17.94375,-56.812504,-0.22500001,0,
2022-04-15 10:26:15.717,-0.115525395,0.1807736,0.0014665816,40.4387022,-86.9338181,20.26856,0.040539503,-0.0733881,0.19747937,-1.7682959,9.446265,1.2466606,17.98125,-56.812504,-0.22500001,0,
2022-04-15 10:26:15.916,0.02614535,-0.19925305,0.032299776,40.4387022,-86.9338181,20.26856,0.028990507,0.07527256,-0.18687487,-3.229114,9.131609,1.8711873,18.0,-56.831253,-0.24375,0,
2022-04-15 10:26:16.116,0.08739239,0.07617438,-0.23243739,40.4387022,-86.9338181,20.26856,-0.18702364,-0.1787262,0.0233711,-2.4729822,9.316455,1.1473584,18.0375,-56.8875,-0.22500001,0,
2022-04-15 10:26:16.317,0.017205112,-0.014087516,0.07661843,40.4387022,-86.9338181,20.26856,0.010035515,0.0790081,-0.004676223,-2.5028925,9.532407,1.7042879,18.0375,-56.925003,-0.1875,0,
2022-04-15 10:26:16.516,-0.07159636,1.4488585E-4,0.03989498,40.4387022,-86.9338181,20.26856,0.06630969,0.038157463,0.029405832,-3.0592237,9.398409,1.8933209,17.98125,-56.906254,-0.31875002,0,
2022-04-15 10:26:16.716,0.09061532,-0.035292607,-0.12983969,40.4387036,-86.933578,20.260185,-0.0700171,-0.119158745,-0.084934354,-3.0592237,9.398409,1.8933209,18.0,-56.86875,-0.3,0,
2022-04-15 10:26:16.917,0.07248843,0.08963508,0.108290255,40.4387036,-86.933578,20.260185,-0.069844484,0.113404274,0.08530545,-2.5968108,9.468997,1.7581264,18.0375,-56.86875,-0.3375,0,
2022-04-15 10:26:17.116,-0.03972595,-0.0076773074,0.122817434,40.4387036,-86.933578,20.260185,0.09317756,0.08776188,0.018357754,-2.2612174,9.341579,1.3022938,18.018751,-56.86875,-0.31875002,0,
2022-04-15 10:26:17.317,-0.07022373,-0.15579687,-0.051338322,40.4387036,-86.933578,20.260185,0.090973616,-0.061564445,-0.14061749,-2.3539393,9.300901,1.666601,18.0,-56.850002,-0.3,0,
2022-04-15 10:26:17.517,0.021934606,0.082218155,-0.055617154,40.4387036,-86.933578,20.260185,-0.051378727,-0.05847168,0.06538737,-2.8372893,9.393025,1.1515459,17.94375,-56.906254,-0.3,0,
2022-04-15 10:26:17.715,-0.034014557,-0.056255918,0.016340563,40.438708,-86.9333394,20.338789,0.05082798,0.016030312,-0.04181242,-2.8372893,9.393025,1.1515459,17.925001,-56.8875,-0.3375,0,
2022-04-15 10:26:17.915,0.025016524,0.030609526,0.19980457,40.438708,-86.9333394,20.338789,0.08940196,0.16652489,0.07590377,-1.1659029,9.220742,2.3778675,17.925001,-56.906254,-0.41250002,0,
2022-04-15 10:26:18.115,-0.20509109,-0.19892043,-0.100056216,40.438708,-86.9333394,20.338789,0.2383616,-0.11347294,-0.14815724,-2.69372,9.311669,1.5433706,17.85,-56.9625,-0.39375,0,
2022-04-15 10:26:18.315,-0.13452142,-5.308464E-4,0.008094616,40.438708,-86.9333394,20.338789,0.11512613,-0.063715935,0.029121637,-2.0602202,9.425926,1.5200406,17.8125,-56.9625,-0.375,0,
2022-04-15 10:26:18.514,0.055356853,0.022019971,0.084092624,40.438708,-86.9333394,20.338789,-0.022047997,0.09818745,0.022224784,-2.2277179,9.286545,1.5936198,17.79375,-56.943752,-0.43125,1,
2022-04-15 10:26:18.714,0.10228961,-0.048934307,0.038837183,40.4387089,-86.9330991,20.467352,-0.06085205,0.08097553,-0.06407845,-2.2277179,9.286545,1.5936198,17.831251,-56.9625,-0.46875003,0,
2022-04-15 10:26:18.914,0.0964794,0.118399315,-0.03320269,40.4387089,-86.9330991,20.467352,-0.12146425,-0.06166172,0.076637864,-3.2500513,9.7609215,1.3986049,17.85,-57.000004,-0.52500004,0,
2022-04-15 10:26:19.114,0.06996309,-0.038227644,0.038753077,40.4387089,-86.9330991,20.467352,-0.042196512,0.059523582,-0.05034268,-2.5962126,9.369696,1.2029916,17.85,-56.98125,-0.54375005,0,
2022-04-15 10:26:19.314,0.065699704,-0.017057568,-0.15050994,40.4387089,-86.9330991,20.467352,-0.038181305,-0.14731121,-0.06404877,-3.0143583,8.879167,1.7359928,17.925001,-56.98125,-0.46875003,0,
2022-04-15 10:26:19.514,-0.06731182,0.058226813,-0.0042901877,40.4387089,-86.9330991,20.467352,0.046342373,-0.02048111,0.07329774,-2.8642087,9.4019985,1.8071793,17.962502,-56.9625,-0.46875003,0,
2022-04-15 10:26:19.714,-0.020089358,-0.0045425165,0.075084895,40.4387097,-86.9328625,20.567932,0.025312185,0.07207203,0.015062332,-2.8642087,9.4019985,1.8071793,18.056252,-56.943752,-0.46875003,0,
2022-04-15 10:26:19.913,0.20180291,0.051482957,0.13499565,40.4387097,-86.9328625,20.567932,-0.1064744,0.22339153,0.01892531,-2.2761726,9.457033,1.1694921,18.0,-57.000004,-0.41250002,0,
2022-04-15 10:26:20.113,-0.14336805,-0.1470943,-0.3919812,40.4387097,-86.9328625,20.567932,0.05482006,-0.3900442,-0.20174408,-1.9824536,8.529815,2.167299,17.90625,-57.037502,-0.43125,0,
2022-04-15 10:26:20.313,-0.07881142,0.25891432,0.13397373,40.4387097,-86.9328625,20.567932,-0.018919706,0.08596134,0.2888763,-3.1591241,9.3816595,1.6504494,17.94375,-57.000004,-0.50625,0,
2022-04-15 10:26:20.514,0.18308347,-0.17097595,0.20356667,40.4387097,-86.9328625,20.567932,-0.15088677,0.20971298,-0.19350803,-3.0035906,9.052647,1.1700903,17.90625,-57.05625,-0.43125,1,
2022-04-15 10:26:20.713,0.21887039,0.045009233,-0.38806534,40.4387111,-86.9326214,20.687754,-0.16965485,-0.40789032,-0.07326305,-3.0035906,9.052647,1.1700903,17.962502,-57.037502,-0.41250002,0,
2022-04-15 10:26:20.913,0.04473736,-0.06388357,-0.0943147,40.4387111,-86.9326214,20.687754,-0.04497671,-0.06959629,-0.0900625,-2.3653052,8.965906,1.8305093,17.90625,-57.05625,-0.41250002,0,
2022-04-15 10:26:21.114,0.11723396,0.014366008,-0.22643812,40.4387111,-86.9326214,20.687754,-0.14234328,-0.20404816,-0.05768144,-2.6362925,9.065208,1.6516458,17.85,-57.05625,-0.41250002,0,
2022-04-15 10:26:21.313,-0.056822002,0.124041826,0.040211894,40.4387111,-86.9326214,20.687754,0.036316395,6.132126E-4,0.13752401,-2.059622,9.655638,1.4147564,17.75625,-57.075,-0.41250002,0,
2022-04-15 10:26:21.513,0.06310069,-0.083520845,0.13794221,40.4387111,-86.9326214,20.687754,-0.057169914,0.1456213,-0.07423961,-3.1794631,9.311669,1.7168503,17.775002,-57.018753,-0.54375005,0,
2022-04-15 10:26:21.712,0.010898158,0.032608274,0.08445104,40.4387151,-86.9323751,20.935398,-0.032350063,0.07449627,0.041446686,-3.1794631,9.311669,1.7168503,17.8875,-56.943752,-0.52500004,0,
2022-04-15 10:26:21.912,0.039120127,-0.100372076,-0.17281856,40.4387151,-86.9323751,20.935398,0.0053596497,-0.16275501,-0.12228358,-2.8354948,8.877372,0.8219346,17.8125,-56.925003,-0.50625,0,
2022-04-15 10:26:22.113,-0.05394365,0.053258955,-0.08680853,40.4387151,-86.9323751,20.935398,0.0498631,-0.09035206,0.051306248,-3.2285159,9.302696,1.797608,17.831251,-56.812504,-0.54375005,0,
2022-04-15 10:26:22.312,0.08828657,0.0101418765,0.11100421,40.4387151,-86.9323751,20.935398,0.012490749,0.14163399,0.0017627478,-2.1457636,9.624531,0.9846465,17.75625,-56.812504,-0.65625,0,
2022-04-15 10:26:22.512,-0.18586099,-0.01756125,0.12107411,40.4387151,-86.9323751,20.935398,0.21846509,0.005753517,0.0418514,-2.0757737,9.492926,1.5942181,17.71875,-56.812504,-0.82500005,0,
2022-04-15 10:26:22.712,-0.025204077,-0.10034744,0.022206523,40.4387201,-86.9321257,21.097383,0.058497667,0.007870674,-0.08782971,-2.0757737,9.492926,1.5942181,17.75625,-56.775,-0.93750006,0,
2022-04-15 10:26:22.912,0.013489893,0.04508871,0.21411549,40.4387201,-86.9321257,21.097383,0.09554243,0.18677425,0.063619375,-1.8197416,7.366903,0.8315059,17.79375,-56.737503,-0.95625,0,
2022-04-15 10:26:23.111,0.16980799,-0.07865629,0.35824475,40.4387201,-86.9321257,21.097383,-0.034590244,-0.38110352,-0.13009417,-2.836093,8.715857,-0.07058827,17.75625,-56.756252,-0.91875005,0,
2022-04-15 10:26:23.311,-0.09472538,-0.14324129,-0.07934439,40.4387201,-86.9321257,21.097383,0.11203337,-0.08296871,-0.12787187,-2.5094728,9.503095,2.00698,17.681252,-56.812504,-0.99375004,0,
2022-04-15 10:26:23.511,0.051850993,0.15047537,0.15627429,40.4387201,-86.9321257,21.097383,0.003255844,0.15563679,0.15974855,-2.0165513,9.52822,1.5804594,17.681252,-56.8875,-0.99375004,0,
2022-04-15 10:26:23.711,0.17009363,0.025386168,0.073409006,40.4387245,-86.9318762,21.355106,-0.10400009,0.15539265,0.0015103817,-2.0165513,9.52822,1.5804594,17.643751,-56.943752,-1.0500001,1,
2022-04-15 10:26:23.911,0.13130398,-0.05491012,-0.107829124,40.4387245,-86.9318762,21.355106,-0.12472272,-0.069844246,-0.10699999,-2.6015964,9.280562,1.8436699,17.71875,-56.925003,-0.99375004,0,
2022-04-15 10:26:24.111,-0.049815506,0.031739995,0.026510324,40.4387245,-86.9318762,21.355106,0.032122135,0.02488041,0.050407767,-2.9353952,8.38804,1.6163517,17.75625,-56.906254,-0.93750006,0,
2022-04-15 10:26:24.311,0.05269339,-0.02512332,0.06905428,40.4387245,-86.9318762,21.355106,-0.054191113,0.0653677,-0.031091094,-3.0556345,9.15494,1.2789637,17.7,-56.943752,-0.80625004,0,
2022-04-15 10:26:24.511,-0.02056488,0.118331335,0.026445342,40.4387245,-86.9318762,21.355106,-0.011252165,0.011374474,0.1219368,-2.7433712,9.52822,1.4111671,17.75625,-56.98125,-0.675,0,
2022-04-15 10:26:24.71,0.10144312,-0.11310812,0.1593065,40.4387256,-86.9316239,21.644453,-0.035335302,0.18562508,-0.112948895,-2.7433712,9.52822,1.4111671,17.775002,-56.943752,-0.675,0,
2022-04-15 10:26:24.91,-0.15109876,0.06596562,-0.31793356,40.4387256,-86.9316239,21.644453,0.106921434,-0.33748913,0.05415666,-2.9132617,9.595817,1.6444674,17.79375,-56.8875,-0.61875004,0,
2022-04-15 10:26:25.11,0.11996348,-0.08737712,0.10715907,40.4387256,-86.9316239,21.644453,-0.023450851,0.15284061,-0.09797382,-2.1080768,8.936594,1.1826526,17.71875,-57.018753,-0.41250002,0,
