timestamp,accWrtEarthX,accWrtEarthY,accWrtEarthZ,lat,long,speed,accLiX,accLiY,accLiZ,accX,accY,accZ,magX,magY,magZ,anomalyStatus,
2022-04-15 10:46:45.906,0.0,0.0,0.0,40.505017,-86.9192959,1.7126343,0.0,0.0,0.0,-6.3960147,7.375876,0.5778667,52.875004,-15.356251,-3.3375,0,
2022-04-15 10:46:46.106,-0.177551,-0.028965048,-0.24334718,40.505017,-86.9192959,1.7126343,-0.25146008,-0.14225149,0.090075165,-6.3254266,7.645068,0.032303106,52.987503,-14.7375,-1.8000001,0,
2022-04-15 10:46:46.305,-0.110687844,0.060976975,-0.21891211,40.505017,-86.9192959,1.7126343,-0.22158003,-0.06338024,0.10381585,-6.401997,7.617551,0.6305088,53.100002,-14.306251,-0.3375,0,
2022-04-15 10:46:46.505,-0.110617846,0.0077889413,-0.13968061,40.505017,-86.9192959,1.7126343,-0.13491488,-0.09230232,0.07131553,-6.474978,7.268199,0.55513483,53.8875,-13.35,0.75,0,
2022-04-15 10:46:46.705,-0.2834671,0.047895126,-0.35634246,40.5050177,-86.9193205,2.2746217,-0.32768774,-0.25071096,0.19847488,-6.6484575,7.4548388,0.71306115,54.093754,-13.6125,3.15,0,
2022-04-15 10:46:46.905,-0.30972117,0.11459862,-0.35280716,40.5050177,-86.9193205,2.2746217,-0.3328843,-0.22451591,0.26891193,-6.454639,7.611569,0.52163535,54.825,-13.012501,3.6375,0,
2022-04-15 10:46:47.105,-0.3418628,0.3425926,-0.3042269,40.5050177,-86.9193205,2.2746217,-0.30282354,-0.0843606,0.4774673,-6.5144596,7.0468626,0.19142582,54.843754,-12.637501,5.925,0,
2022-04-15 10:46:47.305,-0.32844758,-0.10223059,-0.18005513,40.5050177,-86.9193205,2.2746217,-0.06839895,-0.35648346,0.1378037,-6.9523463,7.1916285,0.91166544,55.3875,-12.618751,7.8375,0,
2022-04-15 10:46:47.505,-0.29964167,0.16520025,-0.42300016,40.5050177,-86.9193205,2.2746217,-0.36249065,-0.29204988,0.28162524,-7.210771,6.7022963,1.1282159,55.65,-12.356251,10.181251,0,
2022-04-15 10:46:47.705,-0.34628826,0.3753165,-0.39788663,40.5050075,-86.9193527,3.116926,-0.40866566,-0.1838913,0.46719185,-7.442875,6.5228343,0.9559326,55.443752,-12.168751,11.83125,0,
2022-04-15 10:46:47.905,-0.67437136,0.4383608,-0.67095894,40.5050075,-86.9193527,3.116926,-0.53712225,-0.5313277,0.72547454,-7.9094753,6.8542404,1.0540384,55.068752,-12.806251,14.437501,0,
2022-04-15 10:46:48.105,-0.7323572,0.8451712,-0.9331274,40.5050075,-86.9193527,3.116926,-0.88186264,-0.5097208,1.041101,-7.0899334,7.159325,0.77407813,54.16875,-13.9875,15.843751,0,
2022-04-15 10:46:48.305,-0.65100247,0.66957164,-0.44820675,40.5050075,-86.9193527,3.116926,-0.38747692,-0.31460714,0.9076914,-6.5204415,7.37109,0.5240282,52.968754,-14.2875,17.98125,0,
2022-04-15 10:46:48.505,-0.5101816,0.3352927,0.13381231,40.5050075,-86.9193527,3.116926,0.18908453,-0.043121815,0.5941378,-6.983453,7.489535,0.076570325,52.406254,-15.1125,19.5,0,
2022-04-15 10:46:48.704,-0.3659674,0.3171678,0.12370586,40.5049817,-86.9193801,3.8227944,0.09378004,0.022642612,0.49043173,-6.9152575,7.207182,0.78364944,52.575,-14.887501,20.41875,0,
2022-04-15 10:46:48.904,-0.37120754,0.6262083,-0.29086152,40.5049817,-86.9193801,3.8227944,-0.2841692,-0.109520435,0.72234714,-5.9114685,7.8831544,0.04546363,49.66875,-17.306252,21.16875,0,
2022-04-15 10:46:49.104,-0.47064131,0.23418295,0.25141722,40.5049817,-86.9193801,3.8227944,0.3063426,0.00703001,0.4956413,-6.686743,7.7312098,0.45224348,49.593754,-17.625,22.0125,0,
2022-04-15 10:46:49.304,-0.20167059,0.27223134,0.31623098,40.5049817,-86.9193801,3.8227944,0.22170305,0.20650578,0.35069376,-6.2033925,7.8352976,0.3900301,49.143753,-17.71875,22.143751,0,
2022-04-15 10:46:49.504,-0.13224132,0.35249946,-0.06615391,40.5049817,-86.9193801,3.8227944,-0.08811569,0.027741909,0.3709258,-5.1792645,8.377272,-0.25004998,48.24375,-18.69375,22.59375,0,
2022-04-15 10:46:49.704,-0.36399382,-0.12723687,0.9213442,40.5049393,-86.9193908,4.668739,0.9323921,0.3383088,0.11725153,-6.1160545,7.9800634,-0.034695927,47.943752,-19.29375,23.53125,0,
2022-04-15 10:46:49.903,-0.27275202,0.19342214,0.80784154,40.5049393,-86.9193908,4.668739,0.72801495,0.42290497,0.23571038,-6.068198,7.8520474,-1.018146,47.04375,-19.3875,23.60625,0,
2022-04-15 10:46:50.103,0.10625801,0.041240364,0.059069697,40.5049393,-86.9193908,4.668739,-0.019658566,0.1240983,-0.026342258,-5.239085,7.9393854,-0.36370903,47.90625,-19.2,23.4375,0,
2022-04-15 10:46:50.303,-0.07581282,-0.32496804,0.56353545,40.5049393,-86.9193908,4.668739,0.5837107,0.21265936,-0.20732062,-7.0348988,7.7216387,-0.3385844,47.2125,-19.81875,24.056252,0,
2022-04-15 10:46:50.503,0.06864989,-0.15294021,0.21616744,40.5049393,-86.9193908,4.668739,0.18426085,0.10825062,-0.17076775,-5.7966127,7.864012,-0.317049,47.25,-19.3125,23.71875,0,
2022-04-15 10:46:50.703,0.13559961,-0.083726265,0.018172346,40.5048838,-86.9193836,5.6762114,-0.03306532,0.054942608,-0.14702237,-5.6985073,8.155936,-0.4977071,46.443752,-20.5125,24.900002,0,
2022-04-15 10:46:50.902,-0.023814052,-0.21196681,0.43810225,40.5048838,-86.9193836,5.6762114,0.41669512,0.17533588,-0.1818052,-5.6985073,8.155936,-0.4977071,46.425003,-20.60625,25.0125,0,
2022-04-15 10:46:51.103,0.06625452,-0.08498399,0.044127222,40.5048838,-86.9193836,5.6762114,0.027120113,0.03181696,-0.10867995,-5.6685967,7.98784,-0.23569304,46.350002,-20.625,25.087502,0,
2022-04-15 10:46:51.303,-0.08748297,-0.02843178,0.14321838,40.5048838,-86.9193836,5.6762114,0.16796637,0.02306652,0.015112221,-5.5459647,8.155936,-0.72502524,46.40625,-20.56875,25.10625,0,
2022-04-15 10:46:51.503,0.0060066655,-0.073100954,0.13450819,40.5048838,-86.9193836,5.6762114,0.12302637,0.056280136,-0.07189816,-5.501099,8.003393,-0.60598236,46.425003,-20.53125,25.25625,0,
2022-04-15 10:46:51.703,0.06452648,0.013946136,-0.07543731,40.5048209,-86.919378,7.0150423,-0.097770214,-0.0039892197,-0.021772027,-5.5250273,8.112267,-0.3912265,46.5,-20.587502,25.10625,0,
2022-04-15 10:46:51.903,-0.082695484,-0.045823447,0.041865665,40.5048209,-86.919378,7.0150423,0.0923543,-0.046016216,0.006652534,-5.8127646,8.289336,-0.79501534,46.4625,-20.6625,24.825,0,
2022-04-15 10:46:52.102,0.16863365,0.16253355,-0.1370563,40.5048209,-86.919378,7.0150423,-0.2519946,0.08986759,0.045402944,-5.532206,8.120642,-0.43489552,46.537502,-20.400002,24.581251,0,
2022-04-15 10:46:52.303,-0.403386,0.1285854,0.09456256,40.5048209,-86.919378,7.0150423,0.23158598,-0.13537788,0.34093592,-5.5483575,8.182257,1.0486546,46.443752,-20.4375,24.525002,0,
2022-04-15 10:46:52.503,-0.579185,0.9454749,0.2878482,40.5048209,-86.919378,7.0150423,0.120857716,0.15360832,1.1287305,-5.267201,8.197212,0.81894356,46.3125,-20.475,24.243752,0,
2022-04-15 10:46:52.703,-0.6502538,0.98179746,0.4423933,40.5047522,-86.9193725,7.53939,0.25646067,0.22473812,1.2108628,-4.994419,7.832905,0.79501534,46.143753,-20.475,24.075,0,
2022-04-15 10:46:52.902,-0.8096335,0.5990521,0.2945164,40.5047522,-86.9193725,7.53939,0.4229107,-0.09813976,0.9553139,-5.096114,8.020741,0.5521438,46.0875,-20.475,24.056252,0,
2022-04-15 10:46:53.102,-0.5162288,0.86964375,0.2967219,40.5047522,-86.9193725,7.53939,0.14046669,0.13998699,1.0351275,-5.0644093,8.464012,0.951147,45.99375,-20.5125,23.98125,0,
2022-04-15 10:46:53.302,-0.4702447,0.53720653,0.3025345,40.5047522,-86.9193725,7.53939,0.272923,0.08240509,0.7210897,-4.910072,8.107481,0.61016977,46.068752,-20.325,23.925001,0,
2022-04-15 10:46:53.504,-0.30400783,0.21091613,0.12667671,40.5047522,-86.9193725,7.53939,0.16963148,-0.03870392,0.3502578,-5.4382877,8.684152,0.93978107,46.162502,-20.025002,23.85,0,
2022-04-15 10:46:53.702,-0.11955878,0.36020386,0.15982608,40.5046851,-86.9193666,7.2402854,0.06992054,0.18356514,0.3619399,-5.492126,8.374281,-0.29312077,46.0125,-20.25,23.7,0,
2022-04-15 10:46:53.902,-0.050526746,-0.018209431,0.1220869,40.5046851,-86.9193666,7.2402854,0.12500954,0.043110847,0.017430365,-5.206782,8.298907,0.4833502,45.9,-20.362501,23.60625,0,
2022-04-15 10:46:54.102,0.023457352,-0.09778083,-0.05502108,40.5046851,-86.9193666,7.2402854,-0.009571552,-0.05795288,-0.09843022,-5.5130634,8.323434,0.7710871,45.881252,-20.38125,23.550001,0,
2022-04-15 10:46:54.301,0.033557728,0.18312117,0.040346794,40.5046851,-86.9193666,7.2402854,-0.042093277,0.11575222,0.14531666,-4.9112687,9.030513,0.12502499,45.825,-20.475,23.53125,0,
2022-04-15 10:46:54.501,-0.039318815,0.1799936,0.2991533,40.5046851,-86.9193666,7.2402854,0.17113304,0.23204517,0.20076078,-4.8442693,8.4012,0.84107715,45.75,-20.643751,23.362501,0,
2022-04-15 10:46:54.702,-0.2231824,-0.04640559,0.009975731,40.5046209,-86.9193612,7.110124,0.14997482,-0.15700054,0.07015532,-4.88734,8.640483,1.0642079,45.675003,-20.71875,23.400002,0,
2022-04-15 10:46:54.901,-0.088736705,0.21795402,0.17570047,40.5046209,-86.9193612,7.110124,0.0725503,0.1147089,0.26043642,-4.634897,8.2761755,1.6689938,45.61875,-20.75625,23.34375,0,
2022-04-15 10:46:55.103,-0.28825778,0.28079638,0.14759204,40.5046209,-86.9193612,7.110124,0.118591785,-0.029553413,0.41083467,-4.8616176,8.344969,2.201397,45.581253,-20.85,23.362501,0,
2022-04-15 10:46:55.301,-0.1560827,0.22253698,0.17763513,40.5046209,-86.9193612,7.110124,0.084691525,0.0716362,0.30517924,-5.0955157,8.328219,2.3365912,45.6375,-20.75625,23.34375,0,
2022-04-15 10:46:55.501,-0.17243019,0.24955462,0.08642391,40.5046209,-86.9193612,7.110124,0.03362465,0.013422966,0.31331766,-5.1212387,8.285747,1.7102699,45.7125,-20.681252,23.25,0,
2022-04-15 10:46:55.701,-0.09302102,0.1166383,0.050957978,40.5045608,-86.9193575,6.22436,0.033434868,0.0044794083,0.15400052,-5.0183473,8.492725,1.6031911,45.7125,-20.60625,23.19375,0,
2022-04-15 10:46:55.901,-0.022609934,0.1541442,0.01863201,40.5045608,-86.9193575,6.22436,-0.044624805,0.035064697,0.14628017,-4.7575297,8.389834,1.6827525,45.73125,-20.587502,23.175001,0,
2022-04-15 10:46:56.101,-0.10931468,0.082782246,0.04820247,40.5045608,-86.9193575,6.22436,0.053720474,-0.025147438,0.13269436,-4.5930233,8.390432,2.1834507,45.787502,-20.4375,23.212502,0,
2022-04-15 10:46:56.301,-0.09771223,0.11013003,0.0075947046,40.5045608,-86.9193575,6.22436,0.005024433,-0.03172207,0.14388347,-5.0674,8.206185,1.8466609,45.862503,-20.362501,23.1,0,
2022-04-15 10:46:56.501,-0.0739317,0.07715289,0.0074772323,40.5045608,-86.9193575,6.22436,0.011373997,-0.027551651,0.10288787,-4.7007003,8.551949,1.7826529,45.862503,-20.306252,23.081251,0,
2022-04-15 10:46:56.7,-0.01163486,0.06374995,0.044575803,40.5045116,-86.9193558,4.955863,0.0060744286,0.038674355,0.06821895,-4.847859,8.209176,1.8598214,45.862503,-20.268751,23.025002,0,
2022-04-15 10:46:56.9,-0.09658243,0.006055843,9.2717586E-4,40.5045116,-86.9193558,4.955863,0.05057764,-0.06058216,0.05601251,-5.224728,8.409575,0.7800602,45.6375,-20.268751,22.44375,0,
2022-04-15 10:46:57.1,0.26325864,-0.23753813,-0.120932125,40.5045116,-86.9193558,4.955863,-0.13482952,0.009187698,-0.3494147,-5.252246,8.392825,0.7752745,45.91875,-19.706251,22.556252,0,
2022-04-15 10:46:57.299,0.41821164,-0.600788,-0.23245196,40.5045116,-86.9193558,4.955863,-0.14053488,-0.09223652,-0.74941546,-5.0955157,8.04467,0.86859465,45.54375,-19.9125,23.400002,0,
2022-04-15 10:46:57.499,0.35577354,-0.48101452,-0.23034003,40.5045116,-86.9193558,4.955863,-0.1822176,-0.08348656,-0.6089606,-5.1266227,8.492127,0.62452674,45.35625,-20.025002,22.10625,0,
2022-04-15 10:46:57.699,0.4924987,-0.5592637,-0.20809956,40.5044724,-86.9193564,4.3823977,-0.19191122,-0.017147064,-0.74934125,-5.2534423,8.268398,0.71425754,45.43125,-19.63125,22.1625,0,
2022-04-15 10:46:57.899,0.3279427,-0.47485211,-0.16987433,40.5044724,-86.9193564,4.3823977,-0.13434649,-0.08058739,-0.580814,-5.4233327,8.617751,0.26679972,45.881252,-19.237501,22.931252,0,
2022-04-15 10:46:58.099,0.22969279,-0.2715727,-0.13559017,40.5044724,-86.9193564,4.3823977,-0.11301565,-0.034848213,-0.36181247,-5.1254263,8.209774,0.7848458,46.21875,-18.9375,23.71875,0,
2022-04-15 10:46:58.299,0.13859278,-0.17171302,-0.030125953,40.5044724,-86.9193564,4.3823977,-0.030115604,0.008770943,-0.22049266,-5.198407,8.310273,0.5910272,46.631252,-18.75,23.493752,0,
2022-04-15 10:46:58.499,0.06653556,-0.072586745,-0.07595765,40.5044724,-86.9193564,4.3823977,-0.063958645,-0.030905724,-0.102075994,-5.0273204,8.2014,0.72263247,45.787502,-20.212502,21.84375,0,
2022-04-15 10:46:58.698,0.030793268,-0.10412473,-8.966215E-4,40.5044346,-86.9193557,4.26221,0.028729439,-0.011528015,-0.10408032,-5.026124,8.187042,1.2550355,45.956253,-19.63125,22.743752,0,
2022-04-15 10:46:58.899,0.05890808,-0.04945261,-0.022248197,40.5044346,-86.9193557,4.26221,-0.027237892,0.0072727203,-0.07493937,-5.0344987,8.182257,1.026521,45.693752,-20.7,23.212502,0,
2022-04-15 10:46:59.099,0.0319446,-0.030182462,-0.073672935,40.5044346,-86.9193557,4.26221,-0.058912277,-0.037262917,-0.049999595,-4.9459643,8.342576,1.0588241,46.0875,-19.743752,22.650002,0,
2022-04-15 10:46:59.299,0.015893731,-0.00495067,0.042067084,40.5044346,-86.9193557,4.26221,0.025262356,0.036374092,-0.009246528,-4.9974103,7.8496547,0.75972116,47.362503,-18.956251,22.743752,0,
2022-04-15 10:46:59.498,0.016318653,-0.08113031,0.008206608,40.5044346,-86.9193557,4.26221,0.03065157,-0.012143135,-0.076346576,-5.1732826,8.175078,0.79800636,46.29375,-19.35,22.81875,0,
2022-04-15 10:46:59.698,0.07551843,-0.075607,-0.06641403,40.5043966,-86.9193551,4.1704597,-0.058888912,-0.019200325,-0.109515846,-5.002196,8.1344,0.86261255,46.2,-19.29375,22.3875,0,
2022-04-15 10:46:59.898,0.05544959,-0.027048018,-0.07065145,40.5043966,-86.9193551,4.1704597,-0.075033665,-0.016882896,-0.053691685,-4.9663033,8.143971,0.23569304,46.8375,-18.900002,22.81875,0,
2022-04-15 10:47:00.098,0.038247056,-0.06382266,0.035349138,40.5043966,-86.9193551,4.1704597,0.03374338,0.025395393,-0.070726156,-5.4053864,7.8317084,0.86979103,46.74375,-18.69375,22.66875,0,
2022-04-15 10:47:00.298,-0.0050187036,-0.063798554,-0.011459168,40.5043966,-86.9193551,4.1704597,0.017573833,-0.03413868,-0.05246395,-5.06082,8.26122,0.6903293,46.725002,-18.6375,21.46875,0,
2022-04-15 10:47:00.498,0.055528123,0.017892897,0.0064660064,40.5043966,-86.9193551,4.1704597,-0.028545856,0.04915905,-0.01462394,-5.4221363,8.43111,0.5300102,48.656254,-16.725,22.331251,0,
2022-04-15 10:47:00.698,-0.017434962,-0.024472665,-0.05605673,40.5043598,-86.9193566,4.1301565,-0.025228977,-0.056370735,-0.015201509,-5.1254263,8.165507,0.64965135,47.7,-16.40625,23.212502,0,
2022-04-15 10:47:00.898,0.022483803,0.014591245,-0.002928103,40.5043598,-86.9193566,4.1301565,-0.019458294,0.018661499,-3.502965E-4,-5.5369916,8.486146,0.98943216,47.643753,-16.931252,21.91875,0,
2022-04-15 10:47:01.099,0.005158211,-0.036186557,-0.020164108,40.5043598,-86.9193566,4.1301565,-0.007680416,-0.023451805,-0.033670306,-5.267799,8.563912,0.07298109,47.41875,-18.225,21.862501,0,
2022-04-15 10:47:01.298,0.023005001,-0.0039871344,-0.018769776,40.5043598,-86.9193566,4.1301565,-0.024237156,0.0012350082,-0.017563224,-5.17089,7.8867435,0.8470592,46.7625,-19.59375,21.618752,0,
2022-04-15 10:47:01.497,0.006938955,0.022791069,-0.121882044,40.5043598,-86.9193566,4.1301565,-0.11011076,-0.053795815,0.020110786,-4.6911287,8.395218,-0.2847459,45.91875,-20.7,21.50625,0,
2022-04-15 10:47:01.698,-0.010525678,-0.01346996,0.033788763,40.5043231,-86.9193579,4.199666,0.035856724,0.012116432,-0.0011823177,-5.1409793,8.467003,1.4237294,46.631252,-19.7625,22.63125,0,
2022-04-15 10:47:01.897,-0.23432651,0.2364729,0.07593563,40.5043231,-86.9193579,4.199666,0.06574774,-0.03525448,0.33321005,-5.1326046,8.080562,1.5529419,47.30625,-18.993752,22.331251,0,
2022-04-15 10:47:02.097,-0.2293192,0.44242465,0.14184856,40.5043231,-86.9193579,4.199666,0.01376152,0.02521038,0.5173229,-4.4482574,8.1942215,2.1343977,47.41875,-18.768751,21.243752,0,
2022-04-15 10:47:02.298,-0.36873376,0.38519686,0.3855322,40.5043231,-86.9193579,4.199666,0.25086308,0.03849697,0.6070931,-4.442275,8.4813595,3.1477582,48.45,-18.16875,22.837502,0,
2022-04-15 10:47:02.497,-0.60416865,0.7427015,0.59329396,40.5043231,-86.9193579,4.199666,0.3385811,0.086847305,1.070721,-4.53081,8.319844,2.7984061,47.4,-18.487501,22.10625,0,
2022-04-15 10:47:02.697,-0.6737168,1.0559179,0.5847888,40.5042914,-86.919359,3.0914276,0.26982546,0.124567986,1.3500043,-4.6097727,8.505288,2.2731814,47.550003,-18.337502,21.73125,0,
2022-04-15 10:47:02.897,-0.63663256,0.8210444,0.6334696,40.5042914,-86.919359,3.0914276,0.30151892,0.12932205,1.1717768,-4.9256253,8.23131,2.9395826,48.112503,-17.306252,22.425001,0,
2022-04-15 10:47:03.097,-0.47661942,0.6133754,0.34848112,40.5042914,-86.919359,3.0914276,0.23541164,0.0068826675,0.81814945,-4.354937,8.538788,2.0051854,47.943752,-17.98125,21.65625,0,
2022-04-15 10:47:03.297,-0.28043947,0.2833297,0.24066776,40.5042914,-86.919359,3.0914276,0.18087816,0.048761368,0.4263196,-4.8765726,8.4705925,2.0279171,44.9625,-23.550001,21.9375,0,
2022-04-15 10:47:03.497,0.07173051,-9.369422E-4,0.03344305,40.5042804,-86.9193592,3.0851142,-0.01940012,0.070329666,-0.030691266,-4.76411,8.224132,1.6031911,44.34375,-24.281252,22.03125,0,
2022-04-15 10:47:03.697,0.17606509,-0.271988,-0.15357657,40.5042747,-86.91936,1.5050783,-0.084849834,-0.054818153,-0.34403145,-4.6085763,8.1942215,1.5481563,45.84375,-21.46875,22.3875,0,
2022-04-15 10:47:03.897,0.17040253,-0.3485783,-0.16722676,40.5042747,-86.91936,1.5050783,-0.054849148,-0.09236431,-0.40861845,-4.983053,8.58784,1.5924234,45.91875,-21.431252,22.087502,0,
2022-04-15 10:47:04.097,0.11339283,-0.16720317,-0.06601799,40.5042747,-86.91936,1.5050783,-0.03840685,-0.009106636,-0.20884252,-4.57747,8.366505,1.4763715,45.84375,-20.962502,21.69375,0,
2022-04-15 10:47:04.298,0.055294935,-0.074479304,-0.026118657,40.5042747,-86.91936,1.5050783,-0.012878895,0.00744915,-0.095213056,-4.469793,8.510074,2.3042881,46.03125,-20.79375,21.5625,0,
2022-04-15 10:47:04.497,0.0017333354,-0.008327985,0.0063104006,40.5042747,-86.91936,1.5050783,0.007370472,0.0032644272,-0.00687027,-5.0656056,8.384451,1.6426728,45.881252,-21.0,21.206251,0,
2022-04-15 10:47:04.697,0.023462377,0.0060094483,-0.040996183,40.5042648,-86.9193602,0.6608085,-0.04530096,-0.009537697,-0.011141777,-4.8119664,8.566305,1.1916257,45.862503,-20.71875,22.3875,0,
2022-04-15 10:47:04.898,0.023650035,-0.054483615,0.014941068,40.5042648,-86.9193602,0.6608085,0.023776531,0.013295174,-0.054853797,-4.9842496,8.232507,1.8975084,46.0125,-20.75625,22.275002,0,
2022-04-15 10:47:05.097,0.060696132,-0.07928028,-0.055539746,40.5042648,-86.9193602,0.6608085,-0.042023182,-0.01860714,-0.10460341,-4.8287163,8.518449,1.1270195,46.21875,-21.09375,21.5625,0,
2022-04-15 10:47:05.298,0.04986282,-0.07474739,-0.015402833,40.5042648,-86.9193602,0.6608085,-0.008032322,-0.0021562576,-0.090783,-5.143372,8.43111,0.86859465,46.40625,-20.90625,21.35625,0,
2022-04-15 10:47:05.497,0.12711173,-0.123035416,-0.043519598,40.5042648,-86.9193602,0.6608085,-0.054775715,0.007628441,-0.17358136,-5.180461,8.184649,0.39720857,46.068752,-21.112501,22.181252,0,
2022-04-15 10:47:05.696,0.6069899,-0.82955575,-0.32135496,40.5042625,-86.9193604,0.6604596,-0.27065468,-0.095277786,-1.0380446,-4.9926243,8.478967,0.5084748,46.0125,-21.806252,22.050001,0,
2022-04-15 10:47:05.895,0.32678795,-0.5123356,-0.20105144,40.5042625,-86.9193604,0.6604596,-0.113969326,-0.084441185,-0.62416387,-5.0416775,8.286345,0.94396853,46.425003,-21.581251,21.35625,0,
2022-04-15 10:47:06.095,0.4233548,-0.49794433,-0.17754817,40.5042625,-86.9193604,0.6604596,-0.17952299,-0.025982857,-0.6525316,-5.2701917,8.410771,0.34576288,47.0625,-20.79375,22.368752,0,
2022-04-15 10:47:06.296,0.25685757,-0.36243606,-0.13415337,40.5042625,-86.9193604,0.6604596,-0.110592365,-0.04708481,-0.4482022,-5.0273204,8.386844,0.4139583,46.36875,-21.2625,21.993752,0,
2022-04-15 10:47:06.495,0.17880292,-0.23236963,-0.081826285,40.5042625,-86.9193604,0.6604596,-0.07560444,-0.01837635,-0.29429227,-5.0620165,8.408379,0.38644084,46.59375,-21.056252,21.91875,0,
2022-04-15 10:47:06.695,0.11329235,-0.14204311,-0.046473797,40.5042627,-86.9193605,0.33733746,-0.04417038,-0.009162903,-0.1820336,-5.211568,8.346166,0.35174492,46.875,-21.16875,21.825,0,
2022-04-15 10:47:06.895,0.08328048,-0.110922225,-0.058689684,40.5042627,-86.9193605,0.33733746,-0.043147087,-0.01966858,-0.1429522,-5.032106,8.3174515,0.92482597,47.1375,-21.0,22.125,0,
2022-04-15 10:47:07.095,0.04699867,-0.055551276,-0.020359244,40.5042627,-86.9193605,0.33733746,-0.021299839,-0.0016908646,-0.07247603,-4.9782677,8.394022,0.37088752,46.4625,-21.50625,21.88125,0,
2022-04-15 10:47:07.295,0.041848533,-0.057571825,-0.019281875,40.5042627,-86.9193605,0.33733746,-0.017588139,-0.0054388046,-0.07140505,-4.974678,8.444271,0.30149564,46.4625,-21.4125,22.3125,0,
2022-04-15 10:47:07.494,0.0111714285,-0.021710116,-0.0019766102,40.5042627,-86.9193605,0.33733746,6.3180923E-4,-0.0020914078,-0.024398029,-5.1996036,8.343773,0.4438686,46.725002,-21.28125,22.331251,0,
2022-04-15 10:47:07.694,0.022834856,-0.022116087,-0.01544705,40.5042636,-86.9193606,0.08930304,-0.015997887,-0.0033359528,-0.031338513,-5.2570314,8.319844,0.29192436,46.612503,-21.206251,21.525002,0,
2022-04-15 10:47:07.895,0.011969352,-0.009888238,-0.013117874,40.5042636,-86.9193606,0.08930304,-0.01207304,-0.003973961,-0.015860975,-4.9064827,8.379665,1.0109676,46.068752,-21.956251,22.5,0,
2022-04-15 10:47:08.095,-0.0036101746,-0.003766824,0.005863544,40.5042636,-86.9193606,0.08930304,0.0077967644,2.6798248E-4,-8.6146593E-4,-5.050052,8.342576,0.81236327,45.9,-20.775002,22.48125,0,
2022-04-15 10:47:08.296,0.014473148,-0.015072135,-0.0129623115,40.5042636,-86.9193606,0.08930304,-0.011446953,-0.0037250519,-0.021441877,-4.9340005,8.355737,0.89491564,46.068752,-20.456251,22.237501,0,
2022-04-15 10:47:08.495,-0.0026067912,0.0017816928,-0.0013332139,40.5042636,-86.9193606,0.08930304,-2.6082993E-4,-0.001950264,0.0028063655,-5.148158,8.347362,0.5455636,46.125,-20.831251,22.9125,0,
2022-04-15 10:47:08.694,0.005007937,-0.0030702362,-0.008294649,40.504264,-86.9193606,0.008850768,-0.007674217,-0.0033388138,-0.0057676435,-5.1625147,8.340183,0.6305088,46.725002,-20.587502,23.2875,0,
2022-04-15 10:47:08.895,0.010406876,-0.008552562,-0.00599528,40.504264,-86.9193606,0.008850768,-0.006960392,-3.6239624E-4,-0.012992859,-5.239085,8.362915,0.37806597,46.29375,-20.90625,22.725,0,
2022-04-15 10:47:09.094,-0.007051814,0.010181671,-0.0030686168,40.504264,-86.9193606,0.008850768,-0.002319336,-0.0030851364,0.01216197,-5.038088,8.403593,0.56350976,46.050003,-21.09375,22.462502,0,
2022-04-15 10:47:09.294,-4.7645625E-4,-0.002934013,0.005526053,40.504264,-86.9193606,0.008850768,0.0055480003,0.0020685196,-0.0020769238,-5.029713,8.419147,0.3481557,46.612503,-20.1375,22.85625,0,
2022-04-15 10:47:09.494,0.006487104,-0.010138943,-0.001399287,40.504264,-86.9193606,0.008850768,-8.6164474E-4,-2.450943E-4,-0.012084544,-4.9902315,8.350951,0.47018966,46.74375,-20.38125,23.025002,0,
2022-04-15 10:47:09.694,-0.0096169505,0.015450837,-0.0024141937,40.5042642,-86.9193606,0.0032854367,-0.0022969246,-0.0021781921,0.018083751,-5.078766,8.37129,0.4019942,45.975002,-19.96875,22.3875,0,
2022-04-15 10:47:09.895,0.0074407575,-0.0024588078,-0.00881443,40.5042642,-86.9193606,0.0032854367,-0.009845257,-0.0015878677,-0.006297171,-5.1409793,8.376076,0.3493521,46.425003,-20.306252,22.5,0,
2022-04-15 10:47:10.094,5.767953E-4,-0.006756293,0.0041254107,40.5042642,-86.9193606,0.0032854367,0.0053634644,7.009506E-4,-0.005808711,-5.0823555,8.372486,0.6053841,45.6375,-20.643751,22.35,0,
2022-04-15 10:47:10.293,-0.0075013693,0.013347973,-0.0039528636,40.5042642,-86.9193606,0.0032854367,-0.003648758,-0.0024995804,0.015182316,-4.9842496,8.367701,0.28953153,46.256252,-20.98125,22.612501,0,
2022-04-15 10:47:10.493,0.0044849142,-0.015610145,0.0065886844,40.5042642,-86.9193606,0.0032854367,0.008565426,0.0019731522,-0.015163839,-5.0081778,8.249256,0.6867401,45.73125,-21.243752,22.368752,0,
2022-04-15 10:47:10.693,-0.002136159,0.0061972667,-0.012656766,40.5042642,-86.9193606,0.0020525134,-0.0107188225,-0.007989883,0.0049428344,-4.8323054,8.382058,1.1162517,46.068752,-20.79375,22.06875,0,
2022-04-15 10:47:10.894,-0.0057982327,0.014848607,0.008752761,40.5042642,-86.9193606,0.0020525134,0.004348755,0.007147789,0.016146481,-5.0596237,8.384451,0.51445687,46.7625,-19.96875,22.63125,0,
2022-04-15 10:47:11.093,0.015198736,-0.015555151,-0.008949639,40.5042642,-86.9193606,0.0020525134,-0.008942127,-7.610321E-4,-0.021737516,-4.907679,8.348558,0.7465607,46.21875,-20.400002,22.050001,0,
2022-04-15 10:47:11.293,-0.013620643,0.008826028,0.0039802017,40.5042642,-86.9193606,0.0020525134,0.0071353912,-0.0034589767,0.014710009,-5.0165524,8.398808,0.39361933,46.40625,-20.4375,21.975,0,
2022-04-15 10:47:11.493,0.010209263,-0.011955627,-0.003938662,40.5042642,-86.9193606,0.0020525134,-0.0038342476,4.2915344E-5,-0.01574725,-5.0715876,8.391629,0.6771688,46.55625,-20.1,22.9125,0,
2022-04-15 10:47:11.692,-0.006452813,0.018721467,-0.004760835,40.5042642,-86.9193606,8.627912E-4,-0.0069093704,2.2792816E-4,0.01915741,-5.2749777,8.267202,0.1902294,46.425003,-20.56875,22.875,0,
2022-04-15 10:47:11.893,0.034433663,-0.03852715,-0.008287263,40.5042642,-86.9193606,8.627912E-4,-0.011847019,0.0026197433,-0.0509066,-5.0249276,8.315059,0.15194423,46.0875,-20.587502,23.00625,0,
2022-04-15 10:47:12.092,0.1660548,-0.22922976,-0.09065778,40.5042642,-86.9193606,8.627912E-4,-0.0799036,-0.038241386,-0.2837117,-5.1421757,8.344969,0.16031912,46.143753,-20.04375,22.931252,0,
2022-04-15 10:47:12.292,0.10364008,-0.123823844,-0.031709436,40.5042642,-86.9193606,8.627912E-4,-0.037375927,2.4032593E-4,-0.1602563,-5.1661043,8.411968,0.16390835,46.4625,-19.66875,22.725,0,
2022-04-15 10:47:12.492,0.06846092,-0.09676142,-0.029047478,40.5042642,-86.9193606,8.627912E-4,-0.026368618,-0.010622978,-0.1186814,-5.1349974,8.409575,0.1471586,45.91875,-20.4375,21.91875,0,
2022-04-15 10:47:12.692,0.045907415,-0.06370178,-0.02354528,40.5042633,-86.9193613,0.30914545,-0.024201393,-0.011291504,-0.07750215,-5.0572305,8.151151,-0.32063824,45.7125,-20.681252,22.25625,0,
2022-04-15 10:47:12.892,0.05739268,-0.07421033,-0.0069015375,40.5042633,-86.9193613,0.30914545,-0.017011642,2.412796E-4,-0.09251632,-5.3850474,8.685946,-0.7812566,46.7625,-19.575,22.95,0,
2022-04-15 10:47:13.093,0.17466918,-0.20141979,-0.038129777,40.5042633,-86.9193613,0.30914545,-0.07114458,-0.0073099136,-0.25965005,-5.5202417,8.304291,-0.94636136,45.73125,-19.650002,22.5375,0,
2022-04-15 10:47:13.292,0.2801363,-0.37693965,-0.088318795,40.5042633,-86.9193613,0.30914545,-0.12065649,-0.037352562,-0.46087617,-5.2103715,8.283952,-0.6879365,46.0125,-19.800001,22.087502,0,
2022-04-15 10:47:13.492,0.33315784,-0.4754343,-0.110519275,40.5042633,-86.9193613,0.30914545,-0.12020016,-0.08091068,-0.5729326,-5.4795637,8.082955,-0.5778667,45.43125,-19.425001,22.987501,0,
2022-04-15 10:47:13.692,0.2683192,-0.30884984,-0.083348975,40.5042569,-86.9193616,1.4788704,-0.113391876,-0.020475388,-0.4013147,-5.601598,8.447861,-0.47736812,46.275,-19.03125,23.56875,0,
2022-04-15 10:47:13.892,0.1953512,-0.263404,-0.078097604,40.5042569,-86.9193616,1.4788704,-0.08961916,-0.04630375,-0.32166344,-5.6004014,8.391629,-0.66759753,45.99375,-19.63125,23.1375,0,
2022-04-15 10:47:14.092,0.09319864,-0.14092319,0.0012007337,40.5042569,-86.9193616,1.4788704,-0.010165691,-0.0072517395,-0.16849583,-5.3682976,8.117651,-0.7908279,45.6375,-19.368752,22.96875,0,
2022-04-15 10:47:14.292,-3.4441287E-4,-0.01568101,-0.06446752,40.5042569,-86.9193616,1.4788704,-0.048457623,-0.044457436,-0.008801639,-5.0273204,8.280363,-0.66161543,45.825,-19.59375,23.25,0,
2022-04-15 10:47:14.492,-0.04945617,0.0329187,-0.0020922194,40.5042569,-86.9193616,1.4788704,0.015660286,-0.019102097,0.05407214,-5.1122656,8.2145605,-0.78364944,45.84375,-19.81875,22.612501,0,
2022-04-15 10:47:14.692,-0.019347342,0.011976078,-0.020916946,40.5042399,-86.9193615,2.5598497,-0.009566784,-0.019205093,0.02224648,-5.814559,8.22772,-0.64845496,45.0,-19.81875,23.2875,0,
2022-04-15 10:47:14.892,-0.012777066,0.04379315,-0.11345147,40.5042399,-86.9193615,2.5598497,-0.09640074,-0.05762577,0.048358023,-5.215157,8.2660055,-0.3912265,45.581253,-19.9125,22.931252,0,
2022-04-15 10:47:15.091,-0.05036641,0.110292524,-0.069008805,40.5042399,-86.9193615,2.5598497,-0.07220602,-0.033499718,0.11457527,-5.8887367,7.594819,0.46181476,45.9375,-19.275002,22.706251,0,
2022-04-15 10:47:15.291,-0.1997115,0.21259809,-0.24871084,40.5042399,-86.9193615,2.5598497,-0.15839958,-0.19035244,0.2926008,-6.2404814,7.7096744,-0.06819545,45.09375,-20.456251,22.6875,0,
2022-04-15 10:47:15.491,-0.01304926,0.25016928,-0.46036777,40.5042399,-86.9193615,2.5598497,-0.4279561,-0.21550083,0.2123826,-6.6101727,7.359126,-0.3804588,45.3375,-20.41875,22.5,0,
2022-04-15 10:47:15.69,0.03534057,0.20908386,-0.8636334,40.5042109,-86.9193597,3.6304765,-0.6649971,-0.57666445,0.12674576,-7.3172517,7.4907312,-0.022731815,44.925003,-20.587502,22.95,0,
2022-04-15 10:47:15.892,-0.039587438,0.5753094,-1.2668114,40.5042109,-86.9193597,3.6304765,-1.0864701,-0.75169516,0.43805987,-6.245267,7.0025954,0.13040884,44.34375,-21.0,22.3125,0,
2022-04-15 10:47:16.092,-0.15804106,0.8192463,-1.1413904,40.5042109,-86.9193597,3.6304765,-1.0313039,-0.71247864,0.6539878,-6.1902323,6.7812595,0.45702913,43.4625,-21.6375,22.7625,0,
2022-04-15 10:47:16.291,-0.18850999,0.53385174,-0.6101663,40.5042109,-86.9193597,3.6304765,-0.5365982,-0.44282484,0.456952,-7.2658057,7.1808605,0.85064846,43.6875,-21.6,23.19375,0,
2022-04-15 10:47:16.491,-0.08958319,0.694247,-0.6295059,40.5042109,-86.9193597,3.6304765,-0.6828828,-0.34933376,0.5458193,-6.74776,7.0265236,0.25962126,41.662502,-23.1375,23.04375,0,
2022-04-15 10:47:16.69,-0.08478111,0.66809285,-0.6427775,40.5041751,-86.919347,4.419069,-0.6700387,-0.43152142,0.48118207,-6.478567,7.587641,1.2167503,41.006252,-23.625,22.650002,0,
2022-04-15 10:47:16.89,-0.20671663,0.15134633,-0.25236577,40.5041751,-86.919347,4.419069,-0.05782318,-0.267828,0.23291755,-7.59123,6.814759,0.8566305,40.162502,-24.243752,24.075,0,
2022-04-15 10:47:17.09,-0.12829748,0.50963545,-0.16665594,40.5041751,-86.919347,4.419069,-0.33313656,-0.07561445,0.43274152,-7.7036924,7.259824,0.60059845,39.525,-24.225,21.768751,0,
2022-04-15 10:47:17.29,-0.104387105,0.71400356,-0.4454774,40.5041751,-86.919347,4.419069,-0.56988716,-0.37291193,0.5052851,-7.587641,6.867401,1.1090733,38.193752,-25.35,21.88125,0,
2022-04-15 10:47:17.49,-0.031394362,1.5655962,-1.09803,40.5041751,-86.919347,4.419069,-1.3386703,-0.4116521,1.3024021,-5.2402816,8.172686,0.28235307,36.881252,-25.968752,21.28125,0,
2022-04-15 10:47:17.69,-0.61635756,-0.09501776,-0.10160713,40.5041404,-86.9193037,5.3966203,0.46207047,-0.13754654,0.408437,-8.301898,7.353144,-1.5038891,35.381252,-27.281252,21.862501,0,
2022-04-15 10:47:17.89,-0.5849794,-0.14058095,0.25391,40.5041404,-86.9193037,5.3966203,0.46410704,0.17521477,0.42466295,-8.181659,6.2374907,2.1996021,35.193752,-27.35625,21.73125,0,
2022-04-15 10:47:18.09,-0.083256006,1.8479843,-1.4012471,40.5041404,-86.9193037,5.3966203,-1.5768952,-1.1223755,1.2802911,-6.393024,7.170093,1.0103694,35.2125,-27.243752,21.46875,0,
2022-04-15 10:47:18.29,-0.83986557,0.39121053,0.070493035,40.5041404,-86.9193037,5.3966203,0.3735242,-0.11217213,0.8433779,-6.411568,7.576873,0.41694933,35.1375,-27.375002,20.94375,0,
2022-04-15 10:47:18.489,-0.74029374,-0.21401063,0.33613136,40.5041404,-86.9193037,5.3966203,0.7181034,0.14436483,0.41268152,-6.812366,6.8201427,1.2771691,34.912502,-27.45,20.493752,0,
2022-04-15 10:47:18.691,-0.6723164,0.7176949,-0.20766696,40.5041155,-86.9192352,6.256238,-0.096188545,-0.32240343,0.94711375,-6.812366,6.8201427,1.2771691,34.74375,-27.6375,19.800001,0,
2022-04-15 10:47:18.889,-0.4889704,0.9327294,-0.51177394,40.5041155,-86.9192352,6.256238,-0.42819786,-0.48824787,0.97429425,-6.6969123,7.24786,0.76510507,34.612503,-27.862501,18.91875,0,
2022-04-15 10:47:19.089,-0.40827084,0.67694676,-0.26632544,40.5041155,-86.9192352,6.256238,-0.2398448,-0.24111605,0.76171434,-6.349953,6.9475603,0.4438686,34.3875,-28.181252,17.94375,0,
2022-04-15 10:47:19.289,-0.47547498,0.7423438,-0.49052596,40.5041155,-86.9192352,6.256238,-0.30697012,-0.4026065,0.8726074,-5.992226,7.515856,0.08255238,33.9375,-28.518751,16.837502,0,
2022-04-15 10:47:19.489,-0.17845325,0.21223257,-0.018389052,40.5041155,-86.9192352,6.256238,-0.0024514198,-0.01718235,0.27735382,-6.3541408,7.886145,-0.0741775,33.600002,-28.9125,15.637501,0,
2022-04-15 10:47:19.689,-0.35796246,-0.07745728,0.43085712,40.5041026,-86.9191532,7.14881,0.49157715,0.22840357,0.16111574,-6.3541408,7.886145,-0.0741775,33.1875,-29.212502,14.493751,0,
2022-04-15 10:47:19.889,-0.16417727,-0.0057868287,0.64892787,40.5041026,-86.9191532,7.14881,0.5395832,0.38473558,0.09446408,-4.807181,8.187042,0.23928227,32.756252,-29.643751,13.687501,0,
2022-04-15 10:47:20.089,-0.06776697,-0.14790267,0.6687338,40.5041026,-86.9191532,7.14881,0.5592246,0.38111687,-0.12526071,-5.4167523,7.8556366,-0.6023931,32.475002,-29.962502,12.88125,0,
2022-04-15 10:47:20.288,-0.1539535,-0.16632076,0.18682317,40.5041026,-86.9191532,7.14881,0.2809763,0.07965326,-0.031222552,-6.672386,7.7611203,-0.30029923,32.268753,-30.150002,12.243751,0,
2022-04-15 10:47:20.489,0.005863387,0.117892,0.19958755,40.5041026,-86.9191532,7.14881,0.049905777,0.21380472,0.074599296,-6.1561346,7.6085777,-0.6472585,32.081253,-30.187502,11.681251,0,
2022-04-15 10:47:20.688,-0.05683336,-0.13630581,0.07121472,40.5041001,-86.9190562,8.468569,0.14451265,-0.02018547,-0.07476282,-6.1561346,7.6085777,-0.6472585,31.987501,-30.187502,11.2875,0,
2022-04-15 10:47:20.888,0.09515586,-0.17812198,0.07711105,40.5041001,-86.9190562,8.468569,0.07011843,0.06207037,-0.19483036,-6.535995,7.9094753,0.3924229,31.987501,-30.206251,11.025001,0,
2022-04-15 10:47:21.089,-0.22368002,0.12958181,0.33035812,40.5041001,-86.9190562,8.468569,0.28008795,0.20717573,0.2336443,-5.925227,7.9501534,-0.11724831,32.006252,-30.206251,10.8,0,
2022-04-15 10:47:21.288,-0.060212016,0.09071972,-0.13309182,40.5041001,-86.9190562,8.468569,-0.09136534,-0.0886631,0.1155864,-5.599803,7.6253276,-0.49651068,32.006252,-30.150002,10.650001,0,
2022-04-15 10:47:21.488,-0.13058951,-0.042601172,0.0067979945,40.5041001,-86.9190562,8.468569,0.09542513,-0.090768814,0.03962019,-5.721239,8.161918,-0.5694918,31.931252,-30.056252,10.6125,0,
2022-04-15 10:47:21.688,-0.040823095,0.01941398,0.1801162,40.5040994,-86.9189459,9.678626,0.14795446,0.108417034,0.028991252,-5.721239,8.161918,-0.5694918,31.66875,-30.056252,10.6125,0,
2022-04-15 10:47:21.888,-0.026572919,-0.06428926,0.12260184,40.5040994,-86.9189459,9.678626,0.12758303,0.0386796,-0.045791924,-6.0460644,8.349754,-0.7938189,31.406252,-30.0375,10.668751,0,
2022-04-15 10:47:22.089,0.019091018,0.17679888,-0.08852561,40.5040994,-86.9189459,9.678626,-0.15275621,-0.04736042,0.11782028,-5.886942,7.4105716,0.87996054,31.29375,-30.112501,10.78125,0,
2022-04-15 10:47:22.288,-0.034010895,-0.0032055303,0.019525295,40.5040994,-86.9189459,9.678626,0.034264088,0.003718853,0.018984094,-5.8079786,7.692925,0.53240305,31.031252,-30.206251,10.950001,0,
2022-04-15 10:47:22.487,-0.062604435,-0.0045152027,0.011206008,40.5040994,-86.9189459,9.678626,0.05011511,-0.019839764,0.03406076,-6.554539,8.421539,-0.715454,30.862501,-30.112501,10.9125,0,
2022-04-15 10:47:22.688,0.030007798,0.094640136,-0.0010036693,40.504102,-86.9188226,10.748862,-0.064968586,0.049793243,0.056195587,-6.554539,8.421539,-0.715454,30.69375,-30.112501,10.89375,0,
2022-04-15 10:47:22.887,-0.018993586,-0.0072113387,-0.025560219,40.504102,-86.9188226,10.748862,-0.0051641464,-0.032078266,0.0032250434,-4.7018967,8.266604,-0.038285162,30.618752,-30.150002,10.96875,0,
2022-04-15 10:47:23.087,-0.035912756,0.11996605,0.09554244,40.504102,-86.9188226,10.748862,0.08924961,0.07369614,0.10683316,-5.145167,8.688937,-1.4386846,30.525002,-30.300001,10.89375,0,
2022-04-15 10:47:23.287,-0.0912305,0.1271905,0.10415787,40.504102,-86.9188226,10.748862,0.06187105,0.08495617,0.15589648,-5.771488,8.16132,-0.059820566,30.618752,-30.31875,10.762501,0,
2022-04-15 10:47:23.487,-0.020819532,0.017304169,0.103301,40.504102,-86.9188226,10.748862,0.052889347,0.08668518,0.033051215,-5.6614184,7.8592257,0.64845496,30.6,-30.45,10.650001,0,
2022-04-15 10:47:23.687,0.0070118536,-0.01882142,0.0051853447,40.5041034,-86.9186846,11.718545,0.0076904297,0.0033016205,-0.018980421,-5.6614184,7.8592257,0.64845496,30.525002,-30.525002,10.556251,0,
2022-04-15 10:47:23.888,-0.05679265,-0.05318282,-0.03393645,40.5041034,-86.9186846,11.718545,0.04976797,-0.0682621,-0.008302711,-6.1304116,8.155337,-0.025124637,30.6,-30.6375,10.5,0,
2022-04-15 10:47:24.087,-0.056756437,0.030570388,0.1743364,40.5041034,-86.9186846,11.718545,0.14652824,0.102090836,0.051536024,-5.2342997,8.266604,-0.26021945,30.562502,-30.7875,10.5,0,
2022-04-15 10:47:24.287,0.0035255556,0.014668699,0.0435798,40.5041034,-86.9186846,11.718545,0.008327007,0.04462719,0.008116284,-6.200402,7.7180495,-0.25184458,30.6375,-30.806252,10.59375,0,
2022-04-15 10:47:24.487,-0.064909756,-0.09361166,-0.04959982,40.5041034,-86.9186846,11.718545,0.048628807,-0.10637474,-0.041907225,-5.7009,8.645268,-0.1058824,30.581251,-30.862501,10.575001,0,
2022-04-15 10:47:24.687,0.050108444,0.13089171,0.10343798,40.5041047,-86.9185381,12.648713,-0.018143654,0.15334034,0.080625474,-5.7009,8.645268,-0.1058824,30.675001,-30.750002,10.5,0,
2022-04-15 10:47:24.887,0.008274529,-0.1382061,-0.08703222,40.5041047,-86.9185381,12.648713,0.005072117,-0.11662912,-0.11452477,-5.6757755,7.886145,-0.27218357,30.750002,-30.675001,10.59375,0,
2022-04-15 10:47:25.087,0.022925237,0.06434271,-0.067468524,40.5041047,-86.9185381,12.648713,-0.0850873,-0.010235786,0.04327737,-5.144569,8.319844,-0.08853444,30.825,-30.6,10.63125,0,
2022-04-15 10:47:25.286,0.07188507,-0.0043675248,0.029074421,40.5041047,-86.9185381,12.648713,-0.028498173,0.06050682,-0.039479613,-5.175077,8.293523,0.7298109,30.843752,-30.525002,10.6125,0,
2022-04-15 10:47:25.486,0.0056685656,0.11194152,0.057379503,40.5041047,-86.9185381,12.648713,-0.008430004,0.08753204,0.09012502,-5.3946185,8.29113,-0.10468599,30.88125,-30.375002,10.462501,0,
2022-04-15 10:47:25.686,-0.0027121007,-0.046150208,-0.1789829,40.5041054,-86.9183842,13.598991,-0.102216244,-0.14992428,-0.035307564,-5.3946185,8.29113,-0.10468599,30.862501,-30.31875,10.462501,0,
2022-04-15 10:47:25.886,-0.20103714,0.2044335,-0.04561615,40.5041054,-86.9183842,13.598991,0.009694576,-0.076301575,0.2799534,-5.5477595,8.263613,0.36011982,30.806252,-30.206251,10.387501,0,
2022-04-15 10:47:26.085,-0.038458843,0.15477213,0.0151532525,40.5041054,-86.9183842,13.598991,-0.01352787,0.041186333,0.15421997,-4.467998,8.188239,-0.038285162,30.656252,-30.243752,10.425,0,
2022-04-15 10:47:26.286,-0.18302855,0.07855941,0.12424444,40.5041054,-86.9183842,13.598991,0.15624666,0.036670685,0.17131828,-5.770292,8.393424,0.24107689,30.6,-30.187502,10.462501,0,
2022-04-15 10:47:26.486,-0.29121652,0.09217885,0.20982164,40.5041054,-86.9183842,13.598991,0.27103567,0.039894104,0.24955413,-5.2313085,8.384451,0.8536395,30.487501,-30.16875,10.44375,0,
2022-04-15 10:47:26.686,-0.15512976,0.24896058,0.009385772,40.5041066,-86.91822,13.989503,-0.00940752,-0.012810707,0.2930565,-5.2313085,8.384451,0.8536395,30.487501,-29.98125,10.387501,0,
2022-04-15 10:47:26.885,-0.023648426,0.36117488,0.014986312,40.5041066,-86.91822,13.989503,-0.11474085,0.10124111,0.3283533,-4.6875396,8.549556,0.62452674,30.468752,-29.906252,10.33125,0,
2022-04-15 10:47:27.085,-0.060579203,0.004263278,0.14620554,40.5041066,-86.91822,13.989503,0.1322155,0.07389641,0.04607016,-4.5409794,8.288737,0.8673982,30.393751,-29.868752,10.425,0,
2022-04-15 10:47:27.285,-0.09901063,0.10101968,0.15789026,40.5041066,-86.91822,13.989503,0.11226416,0.09875488,0.15027189,-5.401199,8.779266,0.8386843,30.337502,-29.85,10.44375,0,
2022-04-15 10:47:27.485,0.039324276,0.24012071,0.104373515,40.5041066,-86.91822,13.989503,-0.072368145,0.1722393,0.1876024,-5.2019963,8.231908,0.552742,30.300001,-29.85,10.481251,0,
2022-04-15 10:47:27.685,-0.027839068,-0.055202723,-0.09968494,40.5041073,-86.9180537,13.9600315,-0.017438412,-0.10980511,-0.03739226,-5.2019963,8.231908,0.552742,30.375002,-29.718752,10.44375,0,
2022-04-15 10:47:27.885,-0.17913258,0.029739596,0.0611123,40.5041073,-86.9180537,13.9600315,0.14076567,-0.060141563,0.11522001,-4.779663,8.651849,0.4331009,30.337502,-29.737501,10.556251,0,
2022-04-15 10:47:28.085,-0.10369004,0.016139686,0.041303955,40.5041073,-86.9180537,13.9600315,0.0856967,-0.01758957,0.07116753,-5.3342,8.3348,0.41754755,30.35625,-29.79375,10.6125,0,
2022-04-15 10:47:28.285,-0.045551483,-0.13796401,0.056104247,40.5041073,-86.9180537,13.9600315,0.11059904,-0.041256905,-0.101599276,-4.0965123,8.124829,0.17288144,30.300001,-29.925001,10.668751,0,
2022-04-15 10:47:28.484,-0.04750875,-0.06279113,0.0064351773,40.5041073,-86.9180537,13.9600315,0.069708824,-0.029305458,-0.022871137,-6.1381884,8.541779,0.5880362,30.35625,-29.94375,10.8,0,
2022-04-15 10:47:28.685,-0.0077491775,0.08965455,-0.011772128,40.5041082,-86.9178862,13.860135,-0.04807043,0.008115768,0.076550245,-6.1381884,8.541779,0.5880362,30.393751,-29.962502,10.743751,0,
2022-04-15 10:47:28.884,0.025776993,0.06201918,-0.01640102,40.5041082,-86.9178862,13.860135,-0.05148077,0.023249626,0.039862394,-5.1379886,8.760123,0.35234314,30.50625,-29.85,10.743751,0,
2022-04-15 10:47:29.084,0.0679873,0.06711035,0.0017399723,40.5041082,-86.9178862,13.860135,-0.08800745,0.03202057,0.018933356,-5.1146584,7.8873415,2.9958138,30.656252,-29.812502,10.70625,0,
2022-04-15 10:47:29.285,0.003387034,0.15586415,-0.022750737,40.5041082,-86.9178862,13.860135,-0.09063387,0.031100273,0.1250639,-5.9700923,8.519047,0.27038896,30.806252,-29.75625,10.6875,0,
2022-04-15 10:47:29.484,0.062275507,-0.014405182,0.006388895,40.5041082,-86.9178862,13.860135,-0.032212257,0.03409767,-0.043889463,-5.276174,8.087741,1.966302,30.900002,-29.6625,10.556251,0,
2022-04-15 10:47:29.684,-0.022690482,0.013264458,0.021245861,40.5041078,-86.9177263,13.660212,0.017920494,0.0087862015,0.027273595,-5.276174,8.087741,1.966302,31.031252,-29.60625,10.5,0,
2022-04-15 10:47:29.884,-0.053953987,-0.11624643,-0.02061167,40.5041078,-86.9177263,13.660212,0.08363438,-0.070254326,-0.07013363,-5.1649075,7.9746795,1.0815558,31.087502,-29.625002,10.5375,0,
2022-04-15 10:47:30.084,-0.016208222,0.0022193685,-0.11574206,40.5041078,-86.9177263,13.660212,-0.04737425,-0.10680008,-0.003644228,-5.358128,7.7946196,1.2000005,31.2,-29.475,10.5,0,
2022-04-15 10:47:30.284,0.17038646,-0.11178659,-0.19030854,40.5041078,-86.9177263,13.660212,-0.14991331,-0.118172646,-0.20323962,-5.804988,7.874779,0.6478567,31.218752,-29.41875,10.5375,0,
2022-04-15 10:47:30.485,0.07564244,-0.1270055,-0.10442009,40.5041078,-86.9177263,13.660212,-0.035017014,-0.09039831,-0.15283221,-5.779265,7.792227,0.5587241,31.218752,-29.5125,10.556251,0,
2022-04-15 10:47:30.683,0.16742662,0.08433761,-0.118187055,40.5041077,-86.9175661,13.739915,-0.21802473,-0.008781433,-0.0387401,-5.779265,7.792227,0.5587241,31.2,-29.550001,10.575001,0,
2022-04-15 10:47:30.883,0.18759789,0.045221575,-0.1553836,40.5041077,-86.9175661,13.739915,-0.23575592,-0.012579918,-0.07511932,-4.95075,7.636095,0.6562316,31.25625,-29.587502,10.70625,0,
2022-04-15 10:47:31.083,0.04478785,-0.04319488,-0.119985715,40.5041077,-86.9175661,13.739915,-0.09155798,-0.0765295,-0.06347197,-5.0165524,8.175676,0.26021945,31.2,-29.775002,10.856251,0,
2022-04-15 10:47:31.284,-0.07140049,-0.052225266,0.0167025,40.5041077,-86.9175661,13.739915,0.08230114,-0.03625393,-0.0040814877,-5.1613183,8.111071,0.93738824,31.2,-29.812502,10.837501,0,
2022-04-15 10:47:31.483,-0.10445374,0.055649288,-0.0243152,40.5041077,-86.9175661,13.739915,0.027143955,-0.0578928,0.10251969,-5.258826,8.106883,0.37208393,31.143751,-29.79375,10.8,0,
2022-04-15 10:47:31.683,-0.05520618,0.1024708,0.092683576,40.5041088,-86.9173997,13.899777,0.04687071,0.07525349,0.119491756,-5.258826,8.106883,0.37208393,30.993752,-29.94375,10.8,0,
2022-04-15 10:47:31.883,0.021660954,0.18169874,-5.8886316E-4,40.5041088,-86.9173997,13.899777,-0.10560274,0.050333023,0.14070755,-5.1828537,8.127222,1.0175478,30.91875,-30.112501,10.81875,0,
2022-04-15 10:47:32.083,-0.05020137,-0.05796164,-0.016893884,40.5041088,-86.9173997,13.899777,0.051390648,-0.05397892,-0.024706483,-4.9268217,8.030911,0.93320084,30.806252,-30.112501,10.856251,0,
2022-04-15 10:47:32.284,-0.77863663,-0.16325141,0.5879845,40.5041088,-86.9173997,13.899777,0.9460077,-0.09810448,0.27220714,-3.8350966,8.596215,1.7395821,30.6,-30.243752,10.81875,0,
2022-04-15 10:47:32.482,-0.55167,0.1944341,0.6283218,40.5041088,-86.9173997,13.899777,0.535274,0.32138252,0.5891755,-5.5112686,8.446664,2.2337,30.337502,-30.393751,10.668751,0,
2022-04-15 10:47:32.687,-0.64705145,0.67012143,0.42492157,40.504112,-86.9172368,13.500464,0.2491231,0.12620544,0.9850414,-5.5112686,8.446664,2.2337,30.187502,-30.375002,10.556251,0,
2022-04-15 10:47:32.883,-0.5383111,0.6609613,0.52459216,40.504112,-86.9172368,13.500464,0.29438972,0.1722765,0.9410107,-4.532604,8.52443,2.4963121,30.018751,-30.468752,10.59375,0,
2022-04-15 10:47:33.082,-0.56237274,0.5967066,0.6465239,40.504112,-86.9172368,13.500464,0.41829014,0.2832737,0.91384053,-4.4614177,8.225926,2.0757737,29.8875,-30.562502,10.556251,0,
2022-04-15 10:47:33.282,-0.5527898,0.18391255,0.37136632,40.504112,-86.9172368,13.500464,0.42137432,0.09065151,0.5399438,-5.367101,8.206783,2.7565317,29.75625,-30.656252,10.5,0,
2022-04-15 10:47:33.482,-0.30425492,0.5208814,0.27599338,40.504112,-86.9172368,13.500464,0.112202644,0.11083317,0.6443504,-4.421338,8.526823,1.8855443,29.737501,-30.6375,10.368751,0,
2022-04-15 10:47:33.682,-0.16705236,0.12339629,0.16143164,40.5041143,-86.9170881,12.251197,0.14468718,0.049420357,0.21404803,-4.421338,8.526823,1.8855443,29.75625,-30.656252,10.293751,0,
2022-04-15 10:47:33.883,-0.1501571,0.08362554,0.088511184,40.5041143,-86.9170881,12.251197,0.11930609,-0.0043411255,0.1520586,-4.6486564,8.898309,1.0474582,29.7,-30.6375,10.35,0,
2022-04-15 10:47:34.082,0.015076678,0.079680875,0.04182443,40.5041143,-86.9170881,12.251197,-0.015495777,0.056520462,0.06993532,-4.2448673,8.711669,1.2777673,29.737501,-30.6375,10.40625,0,
2022-04-15 10:47:34.282,0.12789181,-0.16362076,-0.039714657,40.5041143,-86.9170881,12.251197,-0.030149937,0.02702427,-0.20752347,-4.1174498,8.118847,2.044667,29.718752,-30.656252,10.425,0,
2022-04-15 10:47:34.482,0.0982994,-0.12729503,-0.029830627,40.5041143,-86.9170881,12.251197,-0.026873589,0.007267952,-0.16118824,-4.540381,8.386245,1.1647065,29.7,-30.656252,10.387501,0,
2022-04-15 10:47:34.682,0.07598453,-0.030622631,-0.01938471,40.5041152,-86.9169523,11.340966,-0.048759937,0.022042274,-0.06499052,-4.540381,8.386245,1.1647065,29.7,-30.675001,10.462501,0,
2022-04-15 10:47:34.882,-0.017452829,-0.1249642,0.0040726895,40.5041152,-86.9169523,11.340966,0.071415424,-0.03498268,-0.098047376,-5.0709896,8.605786,0.89312106,29.737501,-30.675001,10.481251,0,
2022-04-15 10:47:35.081,0.07619627,0.005766738,-0.036231156,40.5041152,-86.9169523,11.340966,-0.07467699,0.009363174,-0.03856814,-4.8646083,8.468798,1.66361,29.7,-30.768751,10.6875,0,
2022-04-15 10:47:35.281,-0.029593475,0.0276429,-0.01829277,40.5041152,-86.9169523,11.340966,-0.0035510063,-0.021971703,0.038459897,-5.111667,8.630911,0.21714866,29.6625,-30.843752,10.81875,0,
2022-04-15 10:47:35.481,0.23486362,-0.3360868,-0.04892715,40.5041152,-86.9169523,11.340966,-0.04783535,-0.015683174,-0.40984744,-5.1361938,8.485547,0.15433706,29.775002,-30.750002,10.9125,0,
2022-04-15 10:47:35.681,0.23185222,-0.32187212,-0.17832255,40.5041157,-86.9168243,10.830542,-0.13458204,-0.11192131,-0.39814234,-5.1361938,8.485547,0.15433706,29.812502,-30.6375,10.9125,0,
2022-04-15 10:47:35.88,0.257325,-0.032281563,-0.1014907,40.5041157,-86.9168243,10.830542,-0.21769714,0.032486916,-0.17061996,-5.5423756,8.480762,0.28893334,29.962502,-30.525002,10.9875,0,
2022-04-15 10:47:36.081,0.092386134,-0.105783924,-0.12298374,40.5041157,-86.9168243,10.830542,-0.05273676,-0.09535217,-0.15158242,-5.985048,8.190632,1.0259227,30.112501,-30.45,11.1,0,
2022-04-15 10:47:36.281,0.008454539,-0.15225749,-0.15286875,40.5041157,-86.9168243,10.830542,-0.017463207,-0.15213108,-0.1522296,-4.9459643,8.364112,1.1383854,30.281252,-30.300001,11.118751,0,
2022-04-15 10:47:36.481,-0.02158568,0.20350853,0.15324369,40.5041157,-86.9168243,10.830542,-0.042948246,0.1515131,0.20140636,-5.5986066,8.002197,1.5888343,30.35625,-30.206251,11.08125,0,
2022-04-15 10:47:36.683,-0.3189484,0.2481564,0.10792656,40.5041165,-86.9166967,10.620244,0.12693548,-0.0069971085,0.39849246,-5.5986066,8.002197,1.5888343,30.431252,-30.075,10.950001,0,
2022-04-15 10:47:36.882,-0.5639696,0.748386,0.27053982,40.5041165,-86.9166967,10.620244,0.036623,0.047268867,0.97352946,-6.032904,8.341978,2.3318057,30.487501,-29.962502,10.78125,0,
2022-04-15 10:47:37.084,-0.5510196,0.76914126,0.23453385,40.5041165,-86.9166967,10.620244,0.06143093,-0.03965473,0.97203946,-5.063213,8.357532,2.5082762,30.50625,-29.962502,10.725,0,
2022-04-15 10:47:37.281,-0.5661009,0.68195283,0.399342,40.5041165,-86.9166967,10.620244,0.1845169,0.09624481,0.9495759,-5.139185,8.322237,2.521437,30.468752,-30.075,10.6125,0,
2022-04-15 10:47:37.481,-0.4251437,0.611473,0.23127343,40.5041165,-86.9166967,10.620244,0.08533764,0.049479485,0.7735652,-5.075775,8.446066,1.9136599,30.431252,-30.206251,10.63125,0,
2022-04-15 10:47:37.681,-0.33993018,0.36008635,0.25171363,40.5041176,-86.9165823,9.0714855,0.16903114,0.081401825,0.5228543,-5.075775,8.446066,1.9136599,30.393751,-30.187502,10.51875,0,
2022-04-15 10:47:37.882,-0.11186964,0.018117975,0.08161391,40.5041176,-86.9165823,9.0714855,0.112267494,0.010779381,0.08236337,-5.1218367,8.581859,1.2370893,30.35625,-30.243752,10.51875,0,
2022-04-15 10:47:38.081,0.09951896,-0.2970929,-0.07889475,40.5041176,-86.9165823,9.0714855,0.034471035,-0.038796425,-0.3189031,-4.4147577,8.390432,2.0141585,30.281252,-30.300001,10.556251,0,
2022-04-15 10:47:38.281,0.042322643,-0.2298365,-0.0127899125,40.5041176,-86.9165823,9.0714855,0.083819866,-0.014801979,-0.21802461,-4.862814,8.29472,1.8891335,30.337502,-30.225,10.6875,0,
2022-04-15 10:47:38.48,0.079375274,-0.19954614,0.03206349,40.5041176,-86.9165823,9.0714855,0.056160927,0.032021523,-0.2072866,-4.586443,8.455039,1.2586247,30.225,-30.2625,10.762501,0,
2022-04-15 10:47:38.681,0.08454353,-0.19905327,-0.0010293517,40.5041189,-86.9164844,8.091037,0.032695293,0.008913994,-0.21359408,-4.586443,8.455039,1.2586247,30.225,-30.243752,10.70625,0,
2022-04-15 10:47:38.88,0.049886514,-0.16350111,0.0765343,40.5041189,-86.9164844,8.091037,0.08551741,0.053250313,-0.15789223,-4.65404,8.536395,1.0869397,30.187502,-30.16875,10.9125,0,
2022-04-15 10:47:39.081,0.05760865,-0.1856668,0.0092318375,40.5041189,-86.9164844,8.091037,0.04375696,0.005962372,-0.18954134,-4.066602,8.426923,1.1928221,30.13125,-30.075,10.89375,0,
2022-04-15 10:47:39.28,0.035706602,-0.12969126,-0.051545426,40.5041189,-86.9164844,8.091037,0.015469551,-0.03931427,-0.13771999,-4.666602,8.148159,1.8221345,30.13125,-30.150002,11.00625,0,
2022-04-15 10:47:39.479,-6.754026E-4,0.0818312,0.024326913,40.5041189,-86.9164844,8.091037,-0.03146887,0.029298782,0.07375562,-5.0829535,8.429316,1.896312,30.056252,-30.13125,10.950001,0,
2022-04-15 10:47:39.679,-0.035940036,0.14885327,-0.035801444,40.504118,-86.9163941,7.3508554,-0.07068443,-0.03269863,0.13662076,-5.0829535,8.429316,1.896312,30.112501,-30.093752,10.950001,0,
2022-04-15 10:47:39.88,-0.057574816,0.20917343,0.09584082,40.504118,-86.9163941,7.3508554,-0.022544384,0.05440712,0.22975087,-4.4004006,8.325827,2.6135604,30.018751,-30.150002,10.931251,0,
2022-04-15 10:47:40.078,-0.1939184,0.15989488,0.08376757,40.504118,-86.9163941,7.3508554,0.09869242,-0.03720188,0.24302995,-4.2484565,8.597412,2.525026,30.093752,-30.112501,11.0625,0,
2022-04-15 10:47:40.279,-0.1761535,0.29389143,0.1392191,40.504118,-86.9163941,7.3508554,0.04917097,0.04880619,0.3632965,-4.6492543,8.613564,2.0093727,30.075,-30.16875,11.175,0,
2022-04-15 10:47:40.478,-0.15940695,0.27385932,0.07744712,40.504118,-86.9163941,7.3508554,0.008008957,-0.026350975,0.325037,-4.2047877,8.429914,2.8833513,30.093752,-30.16875,11.137501,0,
2022-04-15 10:47:40.679,-0.21115509,0.16157262,0.19973566,40.5041149,-86.9163189,5.8915486,0.16245127,0.0438509,0.28683305,-4.2047877,8.429914,2.8833513,30.150002,-30.225,11.15625,0,
2022-04-15 10:47:40.879,-0.21197008,0.29292673,0.16514368,40.5041149,-86.9163189,5.8915486,0.07303858,0.014746666,0.39045835,-4.3148575,8.487342,3.033501,30.000002,-30.281252,11.1,0,
2022-04-15 10:47:41.078,-0.24009758,0.20775966,0.1331039,40.5041149,-86.9163189,5.8915486,0.10833168,-0.009385109,0.3266554,-4.968696,8.492725,3.094518,30.112501,-30.337502,11.26875,0,
2022-04-15 10:47:41.278,-0.062951885,0.2208666,0.15289032,40.5041149,-86.9163189,5.8915486,0.00588274,0.075157166,0.26540017,-3.769892,8.282157,3.266203,30.075,-30.35625,11.306251,0,
2022-04-15 10:47:41.478,-0.04602591,-0.011634488,-3.2776175E-4,40.5041149,-86.9163189,5.8915486,0.04038191,-0.019803047,0.015198469,-5.47418,8.208578,2.722434,30.093752,-30.375002,11.325001,0,
2022-04-15 10:47:41.678,0.016607527,0.098128915,-0.08143931,40.5041149,-86.9163189,5.8915486,-0.10200739,-0.05104828,0.059380293,-4.9310093,8.408379,1.8867407,30.150002,-30.375002,11.2875,0,
2022-04-15 10:47:41.878,0.094127454,-0.16857564,-0.18881133,40.5041113,-86.9162657,3.7220728,-0.15573597,-0.103652954,-0.1947558,-4.133601,9.190832,0.12921242,30.6,-30.056252,12.0,0,
2022-04-15 10:47:42.077,1.259109,-1.3870319,-0.18316796,40.5041113,-86.9162657,3.7220728,-0.2951331,0.1858902,-1.8496228,-4.688736,7.649854,0.93559366,30.487501,-30.6,12.50625,0,
2022-04-15 10:47:42.278,0.9879576,-1.6917293,0.107606605,40.5041113,-86.9162657,3.7220728,-0.03418398,0.32403278,-1.9347925,-3.8356948,9.372686,0.36251262,30.656252,-29.812502,12.39375,0,
2022-04-15 10:47:42.477,0.6053288,-1.8607105,0.022038251,40.5041113,-86.9162657,3.7220728,0.21911907,-0.049964905,-1.943873,-4.0211387,9.323633,0.5802595,31.48125,-30.31875,12.31875,0,
2022-04-15 10:47:42.678,0.94374233,-0.7888999,0.39448366,40.5041113,-86.9162657,3.7220728,-0.067233086,0.6873846,-1.09161,-4.1491547,8.677571,0.61016977,31.087502,-30.243752,14.025001,0,
2022-04-15 10:47:42.877,0.6243788,-1.5317293,0.23212765,40.5041045,-86.9162299,3.3603854,0.3101611,-0.04529667,-1.6406326,-5.4759746,9.116654,-0.30987054,32.193752,-29.250002,14.043751,0,
2022-04-15 10:47:43.077,0.6206596,-1.2720635,-0.14248468,40.5041045,-86.9162299,3.3603854,-0.32596922,0.03775692,-1.3841907,-3.2219357,9.859626,-0.9068798,31.875002,-29.56875,15.468751,0,
2022-04-15 10:47:43.277,0.70831656,-1.5367337,0.21803445,40.5041045,-86.9162299,3.3603854,0.039339542,0.25143623,-1.6870193,-3.2147572,9.345169,-0.16749759,31.368752,-29.437502,17.04375,0,
2022-04-15 10:47:43.477,0.64483523,-1.8419805,1.0043774,40.5041045,-86.9162299,3.3603854,0.85718703,0.5595484,-1.9415495,-4.4949174,9.30808,-0.025124637,33.05625,-28.425001,17.85,0,
2022-04-15 10:47:43.677,0.9176427,-1.679745,0.19432575,40.5040898,-86.916196,3.979695,-0.21137047,0.1810646,-1.9036574,-3.4923246,9.253045,-1.4560326,33.975002,-27.393751,19.44375,0,
2022-04-15 10:47:43.877,0.7632604,-1.7644521,0.34911758,40.5040898,-86.916196,3.979695,0.14039183,0.16708183,-1.9416784,-4.141976,10.027123,-0.74895346,33.2625,-28.425001,20.38125,0,
2022-04-15 10:47:44.076,0.80163205,-1.6361122,0.7093228,40.5040898,-86.916196,3.979695,0.36437893,0.5662737,-1.8355322,-3.298506,9.38465,-0.38644084,35.1375,-26.081251,21.075,0,
2022-04-15 10:47:44.276,0.7452112,-1.0810293,0.547385,40.5040898,-86.916196,3.979695,0.08075714,0.4672079,-1.3411896,-3.1812577,9.329616,-1.7910278,36.16875,-24.88125,22.6875,0,
2022-04-15 10:47:44.476,0.61240184,-1.6598746,0.56164825,40.5040898,-86.916196,3.979695,0.33461714,0.09100628,-1.8235728,-4.3944187,9.55813,-1.4321043,36.075,-24.712502,23.118752,0,
2022-04-15 10:47:44.676,0.41218597,-1.0932343,0.45884666,40.5040898,-86.916196,3.979695,0.2470746,0.1540308,-1.2209945,-3.5497525,8.973084,-1.3663018,36.99375,-24.206251,23.587502,0,
2022-04-15 10:47:44.877,0.40852398,-0.6685459,0.1328868,40.5040574,-86.9161613,5.4244227,-0.05637288,0.14260101,-0.779738,-3.4971104,9.346964,-1.2167503,37.256252,-23.94375,23.8875,0,
2022-04-15 10:47:45.077,0.06525727,-0.34096214,0.1730451,40.5040574,-86.9161613,5.4244227,0.124068975,0.0027456284,-0.3675019,-3.726223,9.427721,-1.9375881,37.29375,-23.79375,23.775002,0,
2022-04-15 10:47:45.276,0.14956138,-0.21571842,0.07120555,40.5040574,-86.9161613,5.4244227,-0.0059194565,0.036444664,-0.26946247,-4.5559344,8.786445,-2.1014965,37.6875,-23.643751,23.8125,0,
2022-04-15 10:47:45.476,0.023511007,-0.21191555,0.036516868,40.5040574,-86.9161613,5.4244227,0.042574644,-0.035645485,-0.20907235,-3.583252,9.35474,-1.1108679,38.23125,-23.400002,23.868752,0,
2022-04-15 10:47:45.675,0.08766547,-0.01096151,0.36517328,40.5040574,-86.9161613,5.4244227,0.25326967,0.2525854,-0.114943385,-4.354339,9.740582,-2.0841484,38.5875,-23.268751,24.075,0,
2022-04-15 10:47:45.876,0.15698038,0.3038236,0.49447328,40.5040024,-86.9161321,7.0862274,0.36594653,0.44233894,0.1785351,-1.884946,9.697512,-1.7383857,39.112503,-23.00625,24.206251,0,
2022-04-15 10:47:46.075,-0.20253728,-0.15914845,0.2559737,40.5040024,-86.9161321,7.0862274,0.33807755,-0.072714806,-0.11085236,-3.6867416,9.41456,-1.4895321,39.73125,-22.706251,24.35625,0,
2022-04-15 10:47:46.276,-0.007923972,-0.025651455,0.3055343,40.5040024,-86.9161321,7.0862274,0.2564366,0.15638638,-0.062093377,-3.9738803,8.874381,-1.3531412,40.55625,-22.25625,24.69375,0,
2022-04-15 10:47:46.476,-0.033597432,0.07385856,-0.015445022,40.5040024,-86.9161321,7.0862274,-0.0023841858,5.636215E-4,0.08256161,-4.3298125,8.989237,-1.689931,41.175003,-21.806252,24.806252,0,
2022-04-15 10:47:46.675,-0.04829145,0.01715833,-0.3333141,40.5040024,-86.9161321,7.0862274,-0.25158262,-0.20505333,0.091564536,-4.3298125,8.989237,-1.689931,41.831253,-21.300001,24.91875,0,
2022-04-15 10:47:46.875,-0.029317304,0.26613748,-0.3388701,40.5039267,-86.9161162,8.910689,-0.30094957,-0.0834856,0.29829705,-4.7198424,8.806784,-1.5798612,42.412502,-20.90625,24.975,0,
2022-04-15 10:47:47.075,-0.041573465,-0.02036181,-0.40506753,40.5039267,-86.9161162,8.910689,-0.30929852,-0.25266933,0.08194673,-5.197211,8.748757,-2.0045872,42.975002,-20.456251,25.06875,0,
2022-04-15 10:47:47.275,-0.010535579,0.060243107,-0.3747141,40.5039267,-86.9161162,8.910689,-0.30729818,-0.19455814,0.10893047,-5.1792645,8.510074,-1.4111671,43.55625,-20.0625,25.181252,0,
2022-04-15 10:47:47.475,-0.06772741,0.08466691,-0.1976196,40.5039267,-86.9161162,8.910689,-0.13923693,-0.12965775,0.120875716,-4.4817567,8.385049,-0.70289165,44.025,-19.63125,25.143751,0,
2022-04-15 10:47:47.676,-0.15485382,0.22040075,-0.24542491,40.5039267,-86.9161162,8.910689,-0.16250753,-0.15907192,0.2847402,-4.4817567,8.385049,-0.70289165,44.53125,-19.21875,24.91875,0,
2022-04-15 10:47:47.875,-0.21695739,0.6441633,-0.63015944,40.5038334,-86.9161154,10.79046,-0.5482507,-0.17757702,0.7259514,-5.7469616,8.447861,-1.2430713,44.9625,-18.7875,24.768751,0,
2022-04-15 10:47:48.075,-0.23993886,0.56344754,-0.81181157,40.5038334,-86.9161154,10.79046,-0.66845465,-0.3737049,0.66902536,-5.5477595,8.259425,-0.8578269,45.300003,-18.431252,24.806252,0,
2022-04-15 10:47:48.275,-0.19989926,0.4270253,-0.6471174,40.5038334,-86.9161154,10.79046,-0.5220237,-0.29638004,0.52983147,-5.1361938,7.6779695,-0.9499506,45.7125,-18.16875,24.843752,0,
2022-04-15 10:47:48.475,-0.11841023,0.2018376,-0.57401085,40.5038334,-86.9161154,10.79046,-0.44962978,-0.29802608,0.30538732,-6.1824555,8.230113,-1.3543376,45.956253,-17.868752,24.825,0,
2022-04-15 10:47:48.683,-0.090080716,0.24910137,-0.48690635,40.5037268,-86.9161194,11.98326,-0.40975714,-0.20088863,0.31462145,-6.1824555,8.230113,-1.3543376,46.21875,-17.60625,24.768751,0,
2022-04-15 10:47:48.874,-0.11140412,0.076610416,-0.16084883,40.5037268,-86.9161194,11.98326,-0.090390205,-0.13070011,0.13747537,-5.9234324,8.1679,-0.64845496,46.3875,-17.2875,24.73125,0,
2022-04-15 10:47:49.074,-0.046555497,0.1489816,-0.17498988,40.5037268,-86.9161194,11.98326,-0.16260147,-0.058311462,0.15857154,-6.756733,7.8909307,-0.93619186,46.425003,-17.081251,24.675001,0,
2022-04-15 10:47:49.274,-0.040741,0.052943707,-0.18884082,40.5037268,-86.9161194,11.98326,-0.14455414,-0.11332512,0.079907715,-5.372485,8.115856,-0.6945168,46.5,-16.85625,24.7875,0,
2022-04-15 10:47:49.474,-0.060019717,0.14188835,-0.15388636,40.5037268,-86.9161194,11.98326,-0.13330793,-0.0671587,0.15853828,-5.4616175,8.092526,-0.47856453,46.537502,-16.743752,24.956251,0,
2022-04-15 10:47:49.682,-0.011207234,-0.07832845,-0.04969544,40.5036119,-86.9161233,13.184545,-0.008485794,-0.07419872,-0.0561527,-5.4616175,8.092526,-0.47856453,46.575,-16.6875,24.975,0,
2022-04-15 10:47:49.874,-0.09882904,0.07382911,0.034979768,40.5036119,-86.9161233,13.184545,0.05716324,-0.003545761,0.11472267,-5.84088,8.25464,-0.6843473,46.518753,-16.6875,24.975,0,
2022-04-15 10:47:50.073,-0.015252161,6.31589E-4,-0.020487046,40.5036119,-86.9161233,13.184545,-0.00776577,-0.022050858,0.010305285,-5.7834525,7.9980097,-0.41694933,46.612503,-16.63125,25.050001,0,
2022-04-15 10:47:50.273,0.03405974,-0.013191653,-0.0957374,40.5036119,-86.9161233,13.184545,-0.085327625,-0.049477577,-0.027765095,-6.035297,7.881958,-0.35234314,46.612503,-16.612501,25.06875,0,
2022-04-15 10:47:50.474,-0.091006964,0.080551885,0.0011703819,40.5036119,-86.9161233,13.184545,0.025983334,-0.0130672455,0.118009984,-5.809175,7.9615192,-0.9840483,46.59375,-16.612501,25.050001,0,
2022-04-15 10:47:50.687,0.029411005,-0.07289626,-0.030859716,40.5034878,-86.9161245,14.314032,-0.019095898,-0.038336277,-0.072779596,-5.809175,7.9615192,-0.9840483,46.66875,-16.612501,25.125002,0,
2022-04-15 10:47:50.874,0.0053524524,0.015183952,-0.23402841,40.5034878,-86.9161245,14.314032,-0.19041395,-0.13472176,0.024921358,-5.8151574,8.076375,-0.67118675,46.59375,-16.6875,25.143751,0,
2022-04-15 10:47:51.073,-0.03217314,0.23668528,-0.18002242,40.5034878,-86.9161245,14.314032,-0.2205925,-0.04593849,0.1967021,-6.4731836,7.5954175,0.23569304,46.48125,-16.6875,25.050001,0,
2022-04-15 10:47:51.273,0.008606575,0.15973409,0.018608093,40.5034878,-86.9161245,14.314032,-0.034518242,0.09150314,0.12794912,-5.231907,8.092526,-0.6406783,46.443752,-16.63125,25.06875,0,
2022-04-15 10:47:51.473,-0.11280756,0.08248553,0.021098811,40.5034878,-86.9161245,14.314032,0.05177307,-0.027626514,0.12857252,-5.0081778,8.251051,-0.20338993,46.36875,-16.59375,25.031252,0,
2022-04-15 10:47:51.676,-0.11551868,0.086549245,0.13215569,40.5033553,-86.9161237,15.232519,0.13941956,0.0408926,0.13111234,-5.0081778,8.251051,-0.20338993,46.18125,-16.6875,24.975,1,
2022-04-15 10:47:51.872,-0.08448639,-0.018381743,0.14135467,40.5033553,-86.9161237,15.232519,0.16184473,0.024949074,0.025314122,-5.302495,8.420941,-0.29132617,46.050003,-16.78125,25.050001,0,
2022-04-15 10:47:52.073,0.060955293,0.1393088,0.039891608,40.5033553,-86.9161237,15.232519,-0.04431486,0.12557888,0.08354622,-5.115257,8.093124,-0.3792624,45.91875,-16.9125,25.143751,0,
2022-04-15 10:47:52.272,-0.021933176,-0.19883552,0.018622972,40.5033553,-86.9161237,15.232519,0.090536594,-0.09180689,-0.15407163,-5.563911,8.365906,-0.42891344,45.80625,-17.00625,25.1625,0,
2022-04-15 10:47:52.472,0.0064873695,0.24071047,0.11516553,40.5033553,-86.9161237,15.232519,0.023722172,0.18659878,0.1893802,-5.2331033,8.1679,-0.7746763,45.80625,-17.04375,25.125002,0,
2022-04-15 10:47:52.672,0.121228874,-0.04592408,0.1286676,40.5033553,-86.9161237,15.232519,0.04971361,0.13378334,-0.11397976,-5.2331033,8.1679,-0.7746763,45.825,-17.081251,25.181252,0,
2022-04-15 10:47:52.872,-0.053999174,-0.06775283,-0.04636289,40.5032089,-86.9161191,16.225433,0.030855656,-0.092580795,-0.0115151405,-7.698907,8.32463,-0.3804588,45.84375,-17.1,25.181252,0,
2022-04-15 10:47:53.072,0.023171794,0.010786326,0.16464347,40.5032089,-86.9161191,16.225433,0.11137867,0.12282276,-0.016434968,-5.6596236,7.9591265,-0.70229346,45.9375,-17.1375,25.312502,0,
2022-04-15 10:47:53.273,-0.104867876,-0.11266439,-0.059621878,40.5032089,-86.9161191,16.225433,0.05087948,-0.15403509,-0.030492127,-5.602794,8.088937,-0.39421752,45.99375,-17.1375,25.44375,0,
2022-04-15 10:47:53.472,0.013351057,0.1036677,0.032746103,40.5032089,-86.9161191,16.225433,-0.015408039,0.07378292,0.07947466,-5.0674,7.982456,-0.24945176,46.0875,-17.04375,25.44375,0,
2022-04-15 10:47:53.672,-0.09972693,-0.0725211,0.04780467,40.5032089,-86.9161191,16.225433,0.11464977,-0.06529808,-0.009035945,-5.0674,7.982456,-0.24945176,46.2,-16.893751,25.462502,0,
2022-04-15 10:47:53.871,-0.01480872,0.049357828,-0.02245142,40.5030591,-86.9161145,17.02915,-0.027143002,-0.0051546097,0.048951477,-5.1607203,8.06441,0.25064817,46.3125,-16.6875,25.556252,0,
2022-04-15 10:47:54.071,0.03870785,0.114740536,0.052781258,40.5030591,-86.9161145,17.02915,-0.051520824,0.1050539,0.061309308,-7.5990067,8.260622,0.6765706,46.29375,-16.650002,25.556252,0,
2022-04-15 10:47:54.271,0.1090103,0.093230024,0.12739003,40.5030591,-86.9161145,17.02915,0.017351627,0.18919468,0.02660051,-4.543372,8.307282,-0.21415763,46.29375,-16.59375,25.556252,1,
2022-04-15 10:47:54.471,-0.02353252,-0.0089445785,0.058509875,40.5030591,-86.9161145,17.02915,0.056376934,0.028365135,0.008616924,-7.9633136,8.35454,-0.22552353,46.275,-16.518751,25.650002,0,
2022-04-15 10:47:54.671,0.08117819,0.24671294,-0.05316424,40.5029008,-86.9161122,17.789194,-0.20440722,0.115008354,0.123589516,-7.9633136,8.35454,-0.22552353,46.256252,-16.40625,25.593752,1,
2022-04-15 10:47:54.871,-0.032833923,0.0069046477,0.1202982,40.5029008,-86.9161122,17.789194,0.107661724,0.06148243,0.015041918,-6.454639,8.2145605,-0.92183495,46.29375,-16.25625,25.650002,1,
2022-04-15 10:47:55.071,-0.027553938,-0.12700146,-0.109122045,40.5029008,-86.9161122,17.789194,-0.031965733,-0.14240837,-0.08656943,-5.2779684,8.218149,-0.4743771,46.2,-16.25625,25.725,1,
2022-04-15 10:47:55.271,-0.12937541,0.065486476,0.06331264,40.5029008,-86.9161122,17.789194,0.0964756,-0.006972313,0.12521505,-5.838487,8.207381,-0.47736812,46.162502,-16.181252,25.687502,0,
2022-04-15 10:47:55.471,0.03645882,0.038957894,-0.050801948,40.5029008,-86.9161122,17.789194,-0.07190561,0.008037567,0.013884574,-5.4616175,8.076375,-0.3930211,46.162502,-16.1625,25.743752,0,
2022-04-15 10:47:55.672,-0.12554777,-0.08176582,-0.04413707,40.5027308,-86.9161101,18.505394,0.061713696,-0.1434164,0.0043728948,-5.4616175,8.076375,-0.3930211,46.2,-16.06875,25.85625,0,
2022-04-15 10:47:55.872,-0.06528555,0.043400507,0.008967259,40.5027308,-86.9161101,18.505394,0.030135155,-0.019610405,0.07023904,-4.9567323,8.328219,-0.4127619,46.256252,-15.95625,25.85625,0,
2022-04-15 10:47:56.07,0.005488935,-0.038667433,3.871997E-5,40.5027308,-86.9161101,18.505394,0.006084919,-0.013157845,-0.036264926,-4.606782,8.148159,-0.6939186,46.29375,-15.88125,25.81875,0,
2022-04-15 10:47:56.27,-0.13100465,-0.13606437,0.025720742,40.5027308,-86.9161101,18.505394,0.13321972,-0.12974644,-0.041900486,-5.323432,7.98126,-0.54675996,46.237503,-15.825001,25.893751,1,
2022-04-15 10:47:56.471,-0.022753682,0.013784537,-0.09468468,40.5027308,-86.9161101,18.505394,-0.064080715,-0.06925106,0.027764827,-5.8061843,8.045268,-0.34456646,46.275,-15.806251,25.893751,0,
2022-04-15 10:47:56.67,0.03375971,0.095008984,-0.2414597,40.5027308,-86.9161101,18.505394,-0.23534107,-0.09368229,0.06563094,-5.8061843,8.045268,-0.34456646,46.275,-15.750001,25.85625,0,
2022-04-15 10:47:56.87,-0.101181746,0.018014498,-0.07883097,40.5025607,-86.916108,19.189144,-0.010536194,-0.10449886,0.075799495,-5.676972,7.8670025,-0.24705894,46.275,-15.806251,25.893751,0,
2022-04-15 10:47:57.07,-0.20409493,0.14050077,0.042775337,40.5025607,-86.916108,19.189144,0.08768988,-0.03761053,0.23263893,-5.5675,7.9854474,0.15672988,46.18125,-15.900001,25.875002,0,
2022-04-15 10:47:57.27,-0.13932508,0.23263848,-0.016129155,40.5025607,-86.916108,19.189144,-0.020252228,0.0017375946,0.27088583,-5.4466624,8.073383,-0.07178468,46.162502,-15.918751,25.85625,0,
2022-04-15 10:47:57.472,-0.033632234,0.11493211,-0.048547693,40.5025607,-86.916108,19.189144,-0.05733061,-0.0054011345,0.11567811,-4.8562336,7.745567,-0.08315059,46.162502,-16.0125,25.85625,0,
2022-04-15 10:47:57.669,-0.120458685,-0.1642429,0.053622004,40.5025607,-86.916108,19.189144,0.16381884,-0.111376286,-0.07155449,-5.0344987,7.6343007,-0.13040884,46.125,-16.125,25.7625,0,
2022-04-15 10:47:57.87,-0.21839973,-0.20050643,0.029327326,40.5023864,-86.916105,19.469658,0.21084738,-0.20557785,-0.0451941,-5.312066,7.896913,-0.23988047,46.125,-16.237501,25.706251,0,
2022-04-15 10:47:58.069,-0.12901959,-0.17337954,0.11841433,40.5023864,-86.916105,19.469658,0.22632408,-0.069992065,-0.06787493,-5.3814583,7.8287177,0.15314065,46.03125,-16.425001,25.612501,0,
2022-04-15 10:47:58.27,-0.0065504294,-0.01000976,0.08278619,40.5023864,-86.916105,19.469658,0.06913805,0.04693365,-0.0037173647,-5.378467,8.050652,0.11306087,46.050003,-16.518751,25.518751,0,
2022-04-15 10:47:58.47,0.101809666,0.13510434,-0.02221458,40.5023864,-86.916105,19.469658,-0.12907362,0.098107815,0.05316706,-5.4370914,7.9998045,0.5479564,46.050003,-16.575,25.3875,0,
2022-04-15 10:47:58.675,-0.10782406,0.18171874,0.02380671,40.5022099,-86.9161019,19.70844,0.005212307,0.015667439,0.21199492,-5.1696935,7.9950185,0.424726,46.143753,-16.575,25.181252,1,
2022-04-15 10:47:58.869,-0.12038433,0.28582212,0.09302713,40.5022099,-86.9161019,19.70844,0.0184865,0.090847015,0.31023505,-5.3760743,8.301898,0.57547385,46.125,-16.650002,25.087502,0,
2022-04-15 10:47:59.069,0.01628007,0.19758868,0.1807742,40.5022099,-86.9161019,19.70844,0.03529787,0.20678616,0.1672698,-5.666204,8.381459,0.73519474,46.0875,-16.743752,25.031252,0,
2022-04-15 10:47:59.269,0.0757778,0.22312665,0.05916717,40.5022099,-86.9161019,19.70844,-0.07998228,0.16206169,0.16238034,-4.730012,8.49811,0.7902297,46.0875,-16.875,25.0125,0,
2022-04-15 10:47:59.469,-0.091524154,0.16295508,0.12011093,40.5022099,-86.9161019,19.70844,0.06930685,0.081502914,0.19470876,-5.380262,8.29771,0.7160522,46.0875,-16.95,24.937502,0,
2022-04-15 10:47:59.668,-0.019221801,0.1573857,0.0637425,40.5022099,-86.9161019,19.70844,-0.008763313,0.08713341,0.14674407,-5.380262,8.29771,0.7160522,46.125,-16.96875,24.91875,0,
2022-04-15 10:47:59.869,-0.06420116,0.05559025,1.7064204E-4,40.5020355,-86.916099,19.41976,0.013920307,-0.024608612,0.080079556,-4.828118,8.325228,0.7304091,46.0875,-17.1,24.937502,0,
2022-04-15 10:48:00.068,-0.022833526,-7.355539E-4,-0.0040938114,40.5020355,-86.916099,19.41976,0.009986401,-0.017430305,0.011624396,-5.4610195,8.213364,0.86859465,46.0875,-17.175001,25.087502,0,
2022-04-15 10:48:00.268,-0.011199161,-0.067170575,4.1979225E-4,40.5020355,-86.916099,19.41976,0.0323925,-0.030534744,-0.05153483,-5.142774,8.493922,0.6131608,46.068752,-17.268751,25.143751,0,
2022-04-15 10:48:00.469,0.104912214,0.03774652,0.032263827,40.5020355,-86.916099,19.41976,-0.050100327,0.10158825,-0.025339842,-5.373083,8.009974,0.51445687,46.143753,-17.325,25.143751,0,
2022-04-15 10:48:00.673,0.057911348,-0.13699034,-0.055647787,40.5020355,-86.916099,19.41976,-0.021843433,-0.04827404,-0.14969715,-4.8885365,8.041678,0.46301118,46.162502,-17.325,25.06875,0,
2022-04-15 10:48:00.868,-9.5030665E-4,-0.081557624,-0.10511757,40.5018602,-86.916097,19.141724,-0.046076775,-0.09993744,-0.0747776,-4.92084,8.030911,0.5240282,46.21875,-17.362501,25.2,0,
2022-04-15 10:48:01.068,-0.04185126,-0.07934269,-0.02861001,40.5018602,-86.916097,19.141724,0.034709454,-0.07376289,-0.047112763,-5.136792,8.224132,0.7178468,46.2,-17.5125,25.25625,0,
2022-04-15 10:48:01.268,0.077444926,0.017404638,-0.003552917,40.5018602,-86.916097,19.141724,-0.05272913,0.053061485,-0.026783943,-4.9896336,7.912466,0.73399836,46.2,-17.550001,25.3875,0,
2022-04-15 10:48:01.468,-0.086630315,-0.08090593,-0.08680508,40.5018602,-86.916097,19.141724,0.018289566,-0.14256382,-0.030442655,-5.0542397,8.195417,0.7938189,46.237503,-17.41875,25.406252,0,
2022-04-15 10:48:01.667,-0.052885722,0.13869384,0.06391129,40.5018602,-86.916097,19.141724,0.01864481,0.05566883,0.15056854,-5.0542397,8.195417,0.7938189,46.237503,-17.41875,25.275002,0,
2022-04-15 10:48:01.867,0.067249455,0.14128605,-0.023861842,40.5016866,-86.9160936,19.020714,-0.11307955,0.07562542,0.080916226,-5.291129,8.283952,0.71665037,46.237503,-17.41875,25.331251,0,
2022-04-15 10:48:02.067,-0.022526441,0.030317161,-0.044881105,40.5016866,-86.9160936,19.020714,-0.032636642,-0.035694122,0.033191323,-5.127819,8.190632,0.9272188,46.3125,-17.400002,25.35,0,
2022-04-15 10:48:02.267,-0.00900235,0.04602719,-0.016117591,40.5016866,-86.9160936,19.020714,-0.025567532,-0.0012807846,0.042473316,-4.9519463,8.012965,0.7477571,46.350002,-17.362501,25.35,0,
2022-04-15 10:48:02.468,-0.1331948,-0.10313938,-0.018518565,40.5016866,-86.9160936,19.020714,0.10559654,-0.13179302,-0.014194846,-5.18405,7.8430743,0.8392825,46.3125,-17.2875,25.237501,0,
2022-04-15 10:48:02.667,-0.10726922,-0.029252699,-0.089096785,40.5016866,-86.9160936,19.020714,0.007988453,-0.13961506,0.027284801,-5.2809596,7.9316087,0.8249256,46.36875,-17.15625,25.031252,0,
2022-04-15 10:48:02.869,-0.0028407192,0.016839642,0.044683818,40.5015171,-86.9160909,18.771496,0.030656338,0.03285885,0.016394258,-5.1870413,8.676374,0.109471634,46.350002,-17.081251,24.750002,0,
2022-04-15 10:48:03.067,0.07846107,0.104737334,0.14049812,40.5015171,-86.9160909,18.771496,-0.014357567,0.1742506,0.07934958,-5.285745,7.9340014,2.6213372,46.36875,-17.15625,24.73125,0,
2022-04-15 10:48:03.267,0.21525283,0.19334874,-0.13393697,40.5015171,-86.9160909,18.771496,-0.27548838,0.1410799,0.076545596,-4.0815573,8.431708,0.25663024,46.350002,-17.19375,24.6375,0,
2022-04-15 10:48:03.468,-0.12817186,-0.21981066,0.12578718,40.5015171,-86.9160909,18.771496,0.24469423,-0.08008671,-0.11949068,-4.746762,8.412566,0.6664011,46.275,-17.268751,24.562502,0,
2022-04-15 10:48:03.667,-0.06094697,0.08266538,0.0405734,40.5015171,-86.9160909,18.771496,0.017462254,0.01983738,0.10721868,-6.0011992,8.090732,1.3639089,46.162502,-17.306252,24.393751,0,
2022-04-15 10:48:03.866,4.931893E-4,-0.058081195,-0.11245163,40.5013492,-86.9160881,18.449316,-0.050605297,-0.104255676,-0.050881207,-6.558727,8.228319,0.48753762,46.162502,-17.306252,24.375002,0,
2022-04-15 10:48:04.066,-0.08793251,-0.10190521,-0.0703255,40.5013492,-86.9160881,18.449316,0.05523348,-0.13665247,-0.03657645,-6.238687,8.158927,1.3669,46.143753,-17.362501,24.35625,0,
2022-04-15 10:48:04.266,-0.119279906,-0.007041611,0.13607432,40.5013492,-86.9160881,18.449316,0.17101955,9.3746185E-4,0.059539378,-4.5649076,8.53161,0.6843473,46.10625,-17.34375,24.393751,0,
2022-04-15 10:48:04.467,0.093637146,0.16580868,-0.016690567,40.5013492,-86.9160881,18.449316,-0.13247252,0.10409069,0.090305984,-5.1786666,8.446066,0.9840483,46.10625,-17.38125,24.50625,0,
2022-04-15 10:48:04.666,0.09716058,0.07205176,-0.025802216,40.5013492,-86.9160881,18.449316,-0.10173988,0.069869995,0.008035421,-5.1786666,8.446066,0.9840483,46.050003,-17.4375,24.393751,0,
2022-04-15 10:48:04.866,-0.04284215,-0.06345729,0.017699543,40.5011822,-86.9160853,18.132032,0.065541744,-0.032859802,-0.028285384,-4.7946186,7.810173,1.5439688,46.0875,-17.41875,24.375002,0,
2022-04-15 10:48:05.066,-0.01688218,0.042561702,0.10286644,40.5011822,-86.9160853,18.132032,0.06636286,0.07278633,0.054553926,-5.0865426,8.187042,0.91226363,46.162502,-17.400002,24.337502,0,
2022-04-15 10:48:05.266,0.068279654,-0.0762443,0.06513277,40.5011822,-86.9160853,18.132032,0.04463482,0.061820984,-0.094358265,-5.9192452,7.9830546,1.0695918,46.18125,-17.400002,24.431252,0,
2022-04-15 10:48:05.466,0.00632267,0.024831915,0.013299778,40.5011822,-86.9160853,18.132032,-0.003727436,0.020853043,0.019614816,-4.6767716,8.058429,0.99720883,46.125,-17.41875,24.4125,0,
2022-04-15 10:48:05.666,0.06884903,0.093435936,0.04215032,40.5011822,-86.9160853,18.132032,-0.03992939,0.10256767,0.055969894,-4.494319,8.742776,1.0947163,46.143753,-17.4375,24.300001,0,
2022-04-15 10:48:05.865,0.027591817,-0.08003785,-0.06102602,40.5010249,-86.9160828,17.76187,-0.020624638,-0.054976463,-0.08627719,-5.9641104,8.38804,0.9098708,46.125,-17.5125,24.337502,0,
2022-04-15 10:48:06.065,-0.030632168,0.0105339475,0.11411286,40.5010249,-86.9160828,17.76187,0.09090996,0.066402435,0.03737825,-6.0747786,8.528618,1.0283155,46.162502,-17.5125,24.300001,0,
2022-04-15 10:48:06.266,0.11525809,0.10106067,-0.015381034,40.5010249,-86.9160828,17.76187,-0.11554098,0.09774017,0.028834164,-4.6408796,8.179266,1.1940185,46.21875,-17.4375,24.35625,0,
2022-04-15 10:48:06.466,-0.116734475,-0.087194555,-0.070448734,40.5010249,-86.9160828,17.76187,0.04682398,-0.15321922,-0.02289617,-4.8418765,8.209176,0.9762716,46.2,-17.456251,24.337502,1,
2022-04-15 10:48:06.665,-4.51757E-4,-0.007966125,0.03886271,40.5010249,-86.9160828,17.76187,0.03186226,0.023554802,-0.001985252,-4.915456,8.318648,1.1509477,46.18125,-17.456251,24.31875,0,
2022-04-15 10:48:06.865,-0.023717944,0.038212612,-0.053741254,40.5008672,-86.9160804,17.420382,-0.042375088,-0.039808273,0.039121866,-5.791827,8.234301,1.0432707,46.125,-17.475,24.337502,0,
2022-04-15 10:48:07.065,-0.15359233,0.1624082,0.0625527,40.5008672,-86.9160804,17.420382,0.0519042,-0.0066919327,0.22614384,-5.2217374,8.140383,1.3423735,46.125,-17.643751,24.35625,0,
2022-04-15 10:48:07.265,-0.1716316,0.12873097,0.14263508,40.5008672,-86.9160804,17.420382,0.13737345,0.016384125,0.21733367,-4.8006005,8.300702,1.5266209,46.050003,-17.737501,24.45,0,
2022-04-15 10:48:07.465,-0.1064566,0.16772974,0.1206246,40.5008672,-86.9160804,17.420382,0.07991552,0.05693817,0.2106849,-4.4578285,8.029715,1.0450653,46.0125,-17.925001,24.54375,0,
2022-04-15 10:48:07.664,-0.074867666,-0.019892313,-0.082404606,40.5008672,-86.9160804,17.420382,-0.011610985,-0.11188316,0.011778474,-4.761717,8.306684,0.9457632,45.975002,-18.075,24.50625,0,
2022-04-15 10:48:07.864,-0.20996307,0.048671737,-0.022655515,40.5007143,-86.9160793,16.69093,0.07515097,-0.13389635,0.15294051,-5.74756,8.19781,1.9806589,46.0125,-18.16875,24.50625,0,
2022-04-15 10:48:08.064,0.10784438,-0.0017846897,-0.027951071,40.5007143,-86.9160793,16.69093,-0.07906723,0.052054405,-0.05876708,-4.8933225,8.286943,0.9164511,46.0125,-18.31875,24.562502,0,
2022-04-15 10:48:08.265,0.15228033,0.083073735,-0.15506332,40.5007143,-86.9160793,16.69093,-0.22807789,0.002752304,-0.045913815,-5.1349974,8.000402,2.1278176,46.068752,-18.431252,24.50625,0,
2022-04-15 10:48:08.464,0.12064316,-0.07482487,0.06243182,40.5007143,-86.9160793,16.69093,0.009251118,0.1037035,-0.114940286,-4.5242295,8.477173,1.0971092,46.143753,-18.45,24.431252,0,
2022-04-15 10:48:08.664,0.028333385,-0.042822484,-0.10517492,40.5007143,-86.9160793,16.69093,-0.057904243,-0.07406521,-0.06971192,-5.587839,7.580462,1.7581264,46.125,-18.393751,24.35625,1,
2022-04-15 10:48:08.864,-0.01993853,0.005336388,0.02297926,40.5005645,-86.9160783,16.03442,0.02309084,0.0069322586,0.019308686,-6.0436716,8.170891,1.4895321,46.18125,-18.375,24.206251,0,
2022-04-15 10:48:09.064,0.032516696,0.030699488,-0.1312924,40.5005645,-86.9160783,16.03442,-0.11473179,-0.07455921,-0.02269423,-5.8043895,7.4362946,1.9669002,46.237503,-18.243752,24.056252,0,
2022-04-15 10:48:09.264,0.0020713545,0.05785891,0.0054818746,40.5005645,-86.9160783,16.03442,-0.022123337,0.021781921,0.04917419,-4.746164,8.103892,1.2640085,46.237503,-18.16875,24.093752,0,
2022-04-15 10:48:09.464,0.017320253,-0.11480933,-0.0043269414,40.5005645,-86.9160783,16.03442,0.037677288,-0.0138139725,-0.10903895,-4.1874394,8.381459,1.9345971,46.125,-18.1875,24.0,0,
2022-04-15 10:48:09.663,-0.09808969,-0.09560975,-0.004873694,40.5005645,-86.9160783,16.03442,0.09334421,-0.09778309,-0.02262497,-5.6183476,8.054241,0.81894356,46.050003,-18.1875,23.962502,0,
2022-04-15 10:48:09.863,-0.018624457,-0.07091717,0.014732644,40.5004243,-86.9160776,15.430737,0.052743435,-0.025280952,-0.04660654,-5.791229,8.55793,1.0241281,45.99375,-18.13125,24.018751,0,
2022-04-15 10:48:10.063,0.013257019,-0.0011605145,0.1612747,40.5004243,-86.9160776,15.430737,0.10695219,0.12054348,0.014735103,-4.9920263,8.197212,1.3549358,45.9375,-18.243752,24.056252,0,
2022-04-15 10:48:10.264,0.12899989,0.040098287,0.032862045,40.5004243,-86.9160776,15.430737,-0.05736494,0.12458229,-0.022743583,-4.426722,8.411968,0.5240282,45.84375,-18.393751,24.018751,0,
2022-04-15 10:48:10.463,0.17483795,-0.14157915,0.070364825,40.5004243,-86.9160776,15.430737,0.0031089783,0.10452652,-0.21125507,-4.847859,8.513064,-0.24705894,45.9,-18.35625,24.0,0,
2022-04-15 10:48:10.663,0.17120564,0.08076997,-0.1186644,40.5004243,-86.9160776,15.430737,-0.2138238,0.044265747,-0.04728973,-5.5298133,7.9022965,1.2777673,45.91875,-18.2625,23.90625,0,
2022-04-15 10:48:10.865,0.05721008,-0.07191753,-0.13330919,40.5002901,-86.9160764,15.001925,-0.09890318,-0.07407093,-0.10463327,-4.820341,8.129017,1.0055838,45.975002,-18.206251,23.868752,0,
2022-04-15 10:48:11.063,-0.048049442,-0.15958934,-0.116630934,40.5002901,-86.9160764,15.001925,-0.0038628578,-0.15513706,-0.13152128,-4.47398,8.682955,1.0390832,46.10625,-18.112501,23.925001,0,
2022-04-15 10:48:11.263,-0.0040427037,0.13575588,-0.08764139,40.5002901,-86.9160764,15.001925,-0.12350559,-0.020590782,0.10222232,-5.852844,8.283354,1.189831,46.10625,-18.0,23.868752,0,
2022-04-15 10:48:11.463,0.16439502,0.17072299,-0.03469787,40.5002901,-86.9160764,15.001925,-0.1774373,0.15167522,0.05372739,-5.227121,8.134998,0.28175488,46.10625,-17.868752,23.75625,1,
2022-04-15 10:48:11.662,-0.11132234,-0.13432463,-0.035545904,40.5002901,-86.9160764,15.001925,0.08860922,-0.13645458,-0.07230377,-4.0881376,7.838289,1.3842479,46.162502,-17.681252,23.75625,0,
2022-04-15 10:48:11.863,0.10176044,-0.017366946,-0.13352323,40.5001561,-86.916074,14.771261,-0.14217854,-0.041377068,-0.080984294,-6.099305,7.899306,0.38165522,46.29375,-17.456251,23.85,1,
2022-04-15 10:48:12.063,-0.024964299,-0.11806227,0.0015488854,40.5001561,-86.916074,14.771261,0.0666914,-0.053876877,-0.08493441,-5.252844,8.130213,1.0654043,46.36875,-17.38125,24.056252,0,
2022-04-15 10:48:12.262,0.048208173,-0.097256884,0.014807266,40.5001561,-86.916074,14.771261,0.024764538,0.008895874,-0.10634738,-5.0769715,8.225926,0.85902333,46.36875,-17.362501,24.16875,0,
2022-04-15 10:48:12.462,0.006524276,-0.068171956,0.14733249,40.5001561,-86.916074,14.771261,0.13393068,0.07369518,-0.05503118,-4.5912285,8.379665,0.5066802,46.350002,-17.34375,24.225,1,
2022-04-15 10:48:12.662,0.027595272,-0.068216845,0.086581215,40.5001561,-86.916074,14.771261,0.07710123,0.04810524,-0.068210185,-6.2608204,8.279166,0.3367898,46.275,-17.38125,24.281252,0,
2022-04-15 10:48:12.862,0.10765049,-0.18765296,0.0075945635,40.5000242,-86.9160719,14.60093,0.0066390038,-0.006802559,-0.21626279,-5.1290154,8.099705,-0.28893334,46.275,-17.362501,24.300001,0,
2022-04-15 10:48:13.062,0.024351433,-0.1730068,-0.014360055,40.5000242,-86.9160719,14.60093,0.045148373,-0.059661865,-0.1585328,-5.4412785,8.295318,0.48753762,46.275,-17.4375,24.45,0,
2022-04-15 10:48:13.262,0.05734775,-0.121509634,0.16017443,40.5000242,-86.9160719,14.60093,0.13557625,0.09591961,-0.12699494,-5.477171,8.258229,0.36370903,46.21875,-17.550001,24.468752,0,
2022-04-15 10:48:13.462,0.06751348,-0.0466741,0.057782423,40.5000242,-86.9160719,14.60093,0.024556637,0.062563896,-0.074552536,-5.229514,7.975278,0.2434697,46.237503,-17.53125,24.45,0,
2022-04-15 10:48:13.662,0.023344465,-0.18296708,-0.090518154,40.5000242,-86.9160719,14.60093,-0.011510849,-0.11550903,-0.16953059,-5.1589255,8.027322,0.32542387,46.143753,-17.56875,24.35625,0,
2022-04-15 10:48:13.862,-0.024124261,-0.13942178,-0.014285728,40.4998947,-86.9160702,14.759341,0.058465958,-0.077477455,-0.10393973,-5.4023952,8.235497,0.50368917,46.10625,-17.625,24.31875,0,
2022-04-15 10:48:14.062,0.04010006,-0.035735022,0.018489314,40.4998947,-86.9160702,14.759341,0.00484848,0.024359703,-0.051087752,-4.991428,8.22772,0.13459627,46.10625,-17.625,24.31875,0,
2022-04-15 10:48:14.262,0.062464166,-0.0032830369,-0.015621632,40.4998947,-86.9160702,14.759341,-0.044228554,0.029870033,-0.036169082,-5.1326046,8.328817,0.39661035,46.143753,-17.587502,24.16875,0,
2022-04-15 10:48:14.462,0.07592116,0.08088774,-0.038720902,40.4998947,-86.9160702,14.759341,-0.10170412,0.05412388,0.023087531,-5.6093745,8.268997,0.31465617,46.125,-17.625,24.150002,0,
2022-04-15 10:48:14.662,0.030307243,-0.0376949,-0.0792906,40.4998947,-86.9160702,14.759341,-0.06446123,-0.044193268,-0.05018106,-4.875974,8.198408,0.27816564,46.143753,-17.60625,24.075,0,
2022-04-15 10:48:14.862,-0.020979412,-0.070573166,-0.15440884,40.499762,-86.9160705,15.128685,-0.075005054,-0.14064503,-0.062096804,-4.828118,7.9357963,0.77766734,46.2,-17.5125,24.075,0,
2022-04-15 10:48:15.063,0.02118349,0.14007226,-0.10436183,40.499762,-86.9160705,15.128685,-0.15583944,-0.019091606,0.0794352,-7.0845494,7.768897,0.95353985,46.143753,-17.53125,24.112501,1,
2022-04-15 10:48:15.262,0.060532622,-0.050458957,-0.06241422,40.499762,-86.9160705,15.128685,-0.058583736,-0.024518013,-0.07792723,-5.501099,7.966305,0.3182454,46.2,-17.456251,24.112501,1,
2022-04-15 10:48:15.462,-0.025962949,0.0046717525,-0.17818737,40.499762,-86.9160705,15.128685,-0.12463951,-0.12885046,0.017583802,-5.352146,8.154141,0.031106694,46.21875,-17.4375,24.112501,0,
2022-04-15 10:48:15.661,0.07364866,0.016947601,0.09581729,40.499762,-86.9160705,15.128685,0.028692722,0.11599922,-0.024763092,-5.237889,8.204391,0.05922236,46.2,-17.493752,24.13125,1,
2022-04-15 10:48:15.862,-0.01579646,-0.11116383,0.019346027,40.4996226,-86.9160708,15.63817,0.065048695,-0.043831825,-0.08263554,-5.486144,8.029117,0.1160519,46.256252,-17.475,24.150002,1,
2022-04-15 10:48:16.06,-0.017362159,0.08867735,-0.07166161,40.4996226,-86.9160708,15.63817,-0.078864574,-0.025406837,0.08022079,-5.165506,8.11466,0.5096712,46.331253,-17.400002,24.075,1,
2022-04-15 10:48:16.26,-0.07815675,0.008489512,0.028791623,40.4996226,-86.9160708,15.63817,0.060203552,-0.028595924,0.050668657,-5.4185467,8.437691,0.46959144,46.275,-17.4375,24.018751,1,
2022-04-15 10:48:16.46,-0.1456376,0.19524068,0.07071717,40.4996226,-86.9160708,15.63817,0.05181122,0.02425003,0.24709854,-5.2743793,8.181061,0.63529444,46.29375,-17.456251,23.94375,1,
2022-04-15 10:48:16.66,-0.09196149,0.07874297,0.113017336,40.4996226,-86.9160708,15.63817,0.10451269,0.038811684,0.12247872,-4.883751,8.212168,0.6855437,46.256252,-17.456251,23.85,1,
2022-04-15 10:48:16.86,-0.11212016,0.11554139,0.037929393,40.4994801,-86.9160685,15.809096,0.04621935,-0.00931263,0.15854472,-4.8065825,8.037491,0.51206404,46.237503,-17.53125,23.8125,1,
2022-04-15 10:48:17.06,-0.056763537,0.12486323,0.034333568,40.4994801,-86.9160685,15.809096,0.0063433647,0.026394844,0.13876164,-4.901697,8.170293,0.8392825,46.275,-17.5125,23.831251,1,
2022-04-15 10:48:17.26,-0.08865802,-0.04780908,0.08898831,40.4994801,-86.9160685,15.809096,0.13150358,-0.0029611588,0.027620912,-5.651847,7.618747,1.4404793,46.275,-17.456251,23.737501,1,
2022-04-15 10:48:17.459,-0.015705764,0.20727406,-0.0911975,40.4994801,-86.9160685,15.809096,-0.13580942,-0.006426811,0.18177098,-4.133601,7.9998045,0.863809,46.18125,-17.41875,23.71875,1,
2022-04-15 10:48:17.66,-0.058004133,-0.07699877,0.020530365,40.4994801,-86.9160685,15.809096,0.07045698,-0.05595112,-0.040250123,-4.453043,8.42453,0.32243285,46.237503,-17.400002,23.85,1,
2022-04-15 10:48:17.859,0.029175887,0.017220909,0.074771255,40.4993362,-86.9160652,15.742341,0.037191868,0.07295418,0.005743265,-4.4404807,8.287541,0.54735816,46.350002,-17.306252,23.94375,1,
2022-04-15 10:48:18.059,0.07950294,-0.13560031,-0.09143058,40.4993362,-86.9160652,15.742341,-0.06312513,-0.05096817,-0.16274267,-4.848457,8.4604225,0.62931234,46.256252,-17.38125,24.0375,0,
2022-04-15 10:48:18.259,0.09844181,-0.061387178,0.23111339,40.4993362,-86.9160652,15.742341,0.14508486,0.19045067,-0.09773177,-5.4299126,8.193623,0.33020952,46.331253,-17.38125,23.98125,0,
2022-04-15 10:48:18.461,0.116355844,-0.13956027,0.095343664,40.4993362,-86.9160652,15.742341,0.06144762,0.084754944,-0.176485,-5.050052,8.179864,0.33140594,46.3125,-17.2875,23.98125,1,
2022-04-15 10:48:18.659,0.05228488,-0.13886829,-0.049796276,40.4993362,-86.9160652,15.742341,-0.0154109,-0.05190754,-0.1468533,-5.179863,8.210971,0.3080759,46.331253,-17.25,23.90625,1,
2022-04-15 10:48:18.859,0.026708255,-0.109268524,0.050549768,40.499194,-86.9160629,15.959135,0.064656734,0.007405281,-0.10475156,-5.235496,8.234301,0.33320054,46.36875,-17.25,23.925001,1,
2022-04-15 10:48:19.061,0.091309786,-0.01679505,-0.106565006,40.499194,-86.9160629,15.959135,-0.12384176,-0.016173363,-0.066161096,-5.178068,7.9130645,0.18843478,46.36875,-17.268751,23.831251,1,
2022-04-15 10:48:19.259,0.039826304,-0.10381945,-0.29521796,40.499194,-86.9160629,15.959135,-0.20854378,-0.20567226,-0.117160976,-5.3342,8.26122,0.27936205,46.36875,-17.2875,23.8125,1,
2022-04-15 10:48:19.459,0.08267118,0.081539355,-0.08894714,40.499194,-86.9160629,15.959135,-0.14256096,0.025010109,0.021110475,-4.4111686,7.8346996,0.93679005,46.36875,-17.362501,23.7,1,
2022-04-15 10:48:19.658,0.05483307,-0.15208393,0.049460843,40.499194,-86.9160629,15.959135,0.055933475,-0.0049676895,-0.15946576,-5.9383874,9.104092,-0.5054838,46.518753,-17.19375,23.643751,1,
2022-04-15 10:48:19.858,0.026541404,0.13788103,-0.14700153,40.4990473,-86.9160609,16.408216,-0.17664576,-0.022055626,0.098157495,-5.139185,8.363513,0.357727,46.575,-17.19375,23.7,1,
2022-04-15 10:48:20.059,0.086909525,0.01421912,-0.16439033,40.4990473,-86.9160609,16.408216,-0.17476034,-0.04892254,-0.04295388,-5.582455,7.9011,0.26081768,46.518753,-17.2875,23.7,0,
2022-04-15 10:48:20.258,-0.016787477,-0.10250361,-0.02747782,40.4990473,-86.9160609,16.408216,0.024889946,-0.07064152,-0.07703316,-5.236094,7.986644,0.18364914,46.443752,-17.306252,23.625,0,
2022-04-15 10:48:20.458,-0.029983032,-0.006424562,-0.11907779,40.4990473,-86.9160609,16.408216,-0.07714319,-0.09422636,0.017032295,-5.5160546,8.112267,-0.4534399,46.40625,-17.38125,23.60625,1,
2022-04-15 10:48:20.658,0.020555982,0.028870828,0.112028755,40.4990473,-86.9160609,16.408216,0.06744099,0.0941515,0.019842476,-4.6205406,8.257631,0.39720857,46.3875,-17.400002,23.71875,1,
2022-04-15 10:48:20.858,0.062289193,0.024986066,0.09419803,40.4988972,-86.9160574,16.887825,0.027776718,0.11175251,-0.010832727,-5.6069818,8.2965145,0.35473597,46.3125,-17.53125,23.681252,1,
2022-04-15 10:48:21.058,0.0681643,-0.0067625064,0.017653033,40.4988972,-86.9160574,16.887825,-0.020221233,0.052610397,-0.04274319,-5.3216376,8.082955,0.20757736,46.275,-17.56875,23.7,0,
2022-04-15 10:48:21.257,-0.030385273,-0.068754405,-0.061236735,40.4988972,-86.9160574,16.887825,-0.0012803078,-0.087803364,-0.041101128,-5.6668024,8.107481,0.35234314,46.2,-17.7,23.60625,0,
2022-04-15 10:48:21.458,-0.058041103,-0.0333822,-0.006615763,40.4988972,-86.9160574,16.887825,0.038488388,-0.05502224,0.0042550564,-5.4687963,8.200802,0.25663024,46.125,-17.75625,23.5125,0,
2022-04-15 10:48:21.657,-0.033747107,-0.12119481,0.13485043,40.4988972,-86.9160574,16.887825,0.16859913,0.024544716,-0.070594475,-5.9497533,8.089535,0.5174479,46.18125,-17.79375,23.456251,0,
2022-04-15 10:48:21.857,2.4015084E-4,-0.06154131,0.03455397,40.4987414,-86.9160533,17.411732,0.050719738,2.2029877E-4,-0.049079806,-5.4406805,8.116454,0.58923256,46.162502,-17.90625,23.550001,0,
2022-04-15 10:48:22.057,0.048154674,0.0693066,-0.036973994,40.4987414,-86.9160533,17.411732,-0.077842236,0.036805153,0.032792076,-5.176872,8.273783,0.11006984,46.143753,-17.90625,23.53125,0,
2022-04-15 10:48:22.257,0.01923066,0.037891358,0.0888547,40.4987414,-86.9160533,17.411732,0.045857906,0.08395481,0.023438752,-5.155935,8.2965145,0.15493527,46.10625,-17.962502,23.4375,0,
2022-04-15 10:48:22.457,0.066882096,0.037750926,0.11358568,40.4987414,-86.9160533,17.411732,0.029774189,0.13384151,-1.0639429E-5,-5.89771,8.3994055,0.6801598,46.068752,-18.0,23.362501,0,
2022-04-15 10:48:22.657,0.093512334,0.1278752,0.05753933,40.4987414,-86.9160533,17.411732,-0.047028065,0.15186596,0.055968627,-5.547161,8.555537,-0.08015956,46.10625,-18.0375,23.362501,0,
2022-04-15 10:48:22.857,0.03866828,-0.06238981,-0.042220987,40.4985811,-86.9160481,17.997204,-0.02987051,-0.028134346,-0.074071236,-5.377869,8.133204,0.16450655,46.050003,-18.075,23.41875,1,
2022-04-15 10:48:23.057,-0.074833736,-6.128028E-4,0.0027337284,40.4985811,-86.9160481,17.997204,0.042295933,-0.046868324,0.04027842,-5.359923,8.262417,0.30867413,46.03125,-18.112501,23.5125,1,
2022-04-15 10:48:23.257,-0.023299085,-0.015092054,0.087358534,40.4985811,-86.9160481,17.997204,0.08347702,0.037564278,0.0047584623,-5.561518,8.512466,0.5419743,45.91875,-18.112501,23.475,0,
2022-04-15 10:48:23.457,0.041541155,0.13114515,-0.0036242707,40.4985811,-86.9160481,17.997204,-0.07842302,0.0772419,0.08259161,-5.797211,8.139785,0.276371,45.975002,-18.09375,23.4375,0,
2022-04-15 10:48:23.656,0.089015506,0.061651547,-0.04275316,40.4985811,-86.9160481,17.997204,-0.10232973,0.055485725,0.0015701503,-5.493921,8.221141,0.053240303,46.0125,-18.0375,23.456251,0,
2022-04-15 10:48:23.856,-0.13629419,-0.15716812,-0.051707625,40.4984175,-86.9160451,18.547724,0.09734392,-0.18338966,-0.053329065,-5.5890355,8.081161,0.3074777,46.03125,-18.018751,23.5125,0,
2022-04-15 10:48:24.056,-0.048117302,0.05266771,-0.044615872,40.4984175,-86.9160451,18.547724,-0.027921677,-0.04393196,0.06610675,-4.773681,8.215158,0.7268199,46.10625,-17.90625,23.625,0,
2022-04-15 10:48:24.256,-7.495694E-4,0.061659284,-0.04196916,40.4984175,-86.9160451,18.547724,-0.05550909,-0.0020627975,0.049782783,-5.940182,8.1840515,0.13339986,46.10625,-17.79375,23.643751,0,
2022-04-15 10:48:24.456,0.12774736,0.1356726,-0.07758376,40.4984175,-86.9160451,18.547724,-0.18009996,0.08455658,0.034056857,-5.705087,7.859824,0.08733802,46.162502,-17.6625,23.75625,1,
2022-04-15 10:48:24.656,-0.16820063,-0.17309396,-0.0878237,40.4984175,-86.9160451,18.547724,0.08948183,-0.23387289,-0.057117805,-5.174479,7.9794655,0.37328035,46.237503,-17.60625,23.79375,0,
2022-04-15 10:48:24.856,-0.021676276,0.14435157,0.043244485,40.4982456,-86.9160416,19.067022,-0.008499622,0.07545853,0.1319511,-5.5746784,8.221141,0.07238288,46.275,-17.56875,23.79375,0,
2022-04-15 10:48:25.056,0.05528027,-0.03588429,0.038221482,40.4982456,-86.9160416,19.067022,0.012689114,0.04589939,-0.05947019,-5.2079782,8.160722,0.12981063,46.275,-17.5125,23.925001,0,
2022-04-15 10:48:25.256,-0.020019427,0.040384278,-7.177016E-4,40.4982456,-86.9160416,19.067022,-0.0067477226,0.0034456253,0.04443848,-5.8881383,8.265408,0.4235296,46.256252,-17.56875,24.018751,1,
2022-04-15 10:48:25.456,0.031561423,0.07486566,0.011829471,40.4982456,-86.9160416,19.067022,-0.038849354,0.059636116,0.040929064,-6.2177496,8.270791,0.046660043,46.29375,-17.5125,24.075,0,
2022-04-15 10:48:25.655,-0.08205949,-0.113641426,-0.045754563,40.4982456,-86.9160416,19.067022,0.06120968,-0.12618065,-0.04553497,-5.84088,7.993822,0.485743,46.237503,-17.5125,24.056252,0,
2022-04-15 10:48:25.856,-0.07750434,0.04311382,0.23597416,40.498072,-86.9160373,19.508251,0.21511889,0.10629845,0.077291936,-4.9232326,8.837293,0.081954174,46.2,-17.550001,24.13125,0,
2022-04-15 10:48:26.055,0.14293984,0.040524695,0.019644948,40.498072,-86.9160373,19.508251,-0.083173275,0.11096573,-0.05682239,-6.2350974,7.7814593,0.44506502,46.21875,-17.60625,24.13125,1,
2022-04-15 10:48:26.257,-0.23743825,0.008294769,-0.1935999,40.498072,-86.9160373,19.508251,-0.02453804,-0.2794938,0.123319656,-5.0997033,8.468798,0.317049,46.18125,-17.56875,24.150002,0,
2022-04-15 10:48:26.455,0.0018788818,0.05025394,0.28315097,40.498072,-86.9160373,19.508251,0.203928,0.19659233,0.049681813,-4.682754,8.286943,0.23090738,46.2,-17.625,24.281252,0,
2022-04-15 10:48:26.655,0.093420856,-0.054088783,0.17005628,40.498072,-86.9160373,19.508251,0.09884119,0.14800358,-0.094326854,-5.3096733,8.13141,0.1160519,46.2,-17.587502,24.2625,0,
2022-04-15 10:48:26.857,-0.100419566,-0.08080949,-0.030149601,40.497897,-86.9160345,19.788704,0.063545704,-0.115366936,-0.013254151,-5.4059844,8.181061,0.3924229,46.18125,-17.550001,24.2625,0,
2022-04-15 10:48:27.055,0.014335774,0.05403875,0.07165956,40.497897,-86.9160345,19.788704,0.028556347,0.07547665,0.04181631,-5.0602217,8.58784,0.35653058,46.143753,-17.550001,24.281252,0,
2022-04-15 10:48:27.255,0.04463654,0.046813197,0.1723406,40.497897,-86.9160345,19.788704,0.09168577,0.15776825,0.024250373,-5.0051866,8.438289,0.38584265,46.21875,-17.53125,24.243752,0,
2022-04-15 10:48:27.455,0.074769095,0.07447557,-0.07889053,40.497897,-86.9160345,19.788704,-0.12816572,0.024370193,0.0184495,-5.259424,8.221141,0.49112684,46.256252,-17.456251,24.150002,0,
2022-04-15 10:48:27.654,0.008112013,0.04441308,-0.0012329126,40.497897,-86.9160345,19.788704,-0.018717289,0.022548676,0.034366652,-4.90409,8.46461,-0.032901313,46.21875,-17.400002,24.13125,0,
2022-04-15 10:48:27.855,-0.040383887,-0.035962917,-0.010004727,40.4977123,-86.9160328,20.108387,0.028459072,-0.046292305,-0.008449107,-5.391628,8.242676,0.46121657,46.162502,-17.400002,24.16875,0,
2022-04-15 10:48:28.054,0.039282143,0.10176851,-0.16155991,40.4977123,-86.9160328,20.108387,-0.18072748,-0.033791542,0.06478597,-5.407181,8.371888,-0.037686955,46.162502,-17.268751,24.187502,0,
2022-04-15 10:48:28.254,0.03540726,0.06373485,-0.20299633,40.4977123,-86.9160328,20.108387,-0.19848776,-0.07663822,0.035390854,-4.90409,8.14457,0.04426722,46.18125,-17.268751,24.112501,0,
2022-04-15 10:48:28.454,-0.12975201,-0.24317758,0.03576663,40.4977123,-86.9160328,20.108387,0.22012377,-0.13580036,-0.10175441,-6.157331,7.4793653,0.84825563,46.18125,-17.25,24.13125,0,
2022-04-15 10:48:28.654,-0.034835786,0.032823678,-0.22459486,40.4977123,-86.9160328,20.108387,-0.16510534,-0.1522069,0.048032075,-5.489733,7.9830546,-0.05383851,46.21875,-17.212502,24.075,1,
2022-04-15 10:48:28.854,0.008569334,0.08504918,-0.20631978,40.4975299,-86.9160337,20.437954,-0.19344187,-0.09267712,0.0621759,-4.791029,8.168498,0.31286156,46.21875,-17.23125,24.150002,0,
2022-04-15 10:48:29.054,0.095278986,0.06262669,-0.004810446,40.4975299,-86.9160337,20.437954,-0.06937313,0.09051132,0.0042892694,-4.8939204,8.0404825,-0.6681957,46.18125,-17.325,24.281252,0,
2022-04-15 10:48:29.254,0.07550445,0.0072078146,0.03860716,40.4975299,-86.9160337,20.437954,-0.013039589,0.076257706,-0.03546998,-5.2516475,8.070991,-0.08315059,46.2,-17.362501,24.35625,0,
2022-04-15 10:48:29.454,-0.17998773,-0.045538187,-0.04175785,40.4975299,-86.9160337,20.437954,0.08067608,-0.16479206,0.050477415,-4.6899323,7.941778,0.39481574,46.29375,-17.34375,24.375002,0,
2022-04-15 10:48:29.653,-0.004066363,-0.061365478,-0.03155369,40.4975299,-86.9160337,20.437954,-5.8698654E-4,-0.050387383,-0.04731448,-5.8911295,8.472985,-0.24047868,46.350002,-17.400002,24.337502,0,
2022-04-15 10:48:29.854,-0.089899585,-0.075900406,-0.0242681,40.4973447,-86.9160327,20.71848,0.06144333,-0.103173256,-0.003426522,-6.376274,8.097312,-0.24885355,46.237503,-17.4375,24.4125,0,
2022-04-15 10:48:30.053,-0.0515522,-0.0108169485,0.053805448,40.4973447,-86.9160327,20.71848,0.07285786,-0.0041971207,0.018541247,-5.17089,8.434102,0.15074782,46.256252,-17.41875,24.431252,0,
2022-04-15 10:48:30.253,0.010336345,0.06653774,0.08312529,40.4973447,-86.9160327,20.71848,0.03174734,0.08519077,0.056378752,-4.9417768,8.194819,0.5563313,46.2,-17.4375,24.525002,0,
2022-04-15 10:48:30.453,0.050905798,0.15882733,0.014324987,40.4973447,-86.9160327,20.71848,-0.070296764,0.084490776,0.1262632,-3.3559337,7.73779,1.0695918,46.18125,-17.38125,24.525002,0,
2022-04-15 10:48:30.653,-0.29212725,-0.039734453,0.0076026535,40.4973447,-86.9160327,20.71848,0.18438482,-0.17212439,0.15280831,-6.45763,7.984849,1.0163515,46.237503,-17.2875,24.45,0,
2022-04-15 10:48:30.853,-0.031804085,0.3497545,0.02685811,40.4971582,-86.9160304,20.88928,-0.08497667,0.10951328,0.32380068,-4.651049,8.590832,0.6837491,46.275,-17.1375,24.35625,0,
2022-04-15 10:48:31.053,0.21511878,0.11188922,-0.14195529,40.4971582,-86.9160304,20.88928,-0.2595439,0.10566616,-0.02045077,-5.617749,8.030911,-0.76689965,46.237503,-17.118752,24.337502,1,
2022-04-15 10:48:31.253,-0.28387845,0.16376923,-0.09231665,40.4971582,-86.9160304,20.88928,0.0039024353,-0.19513988,0.27898908,-6.0915284,8.1738825,1.896312,46.21875,-17.04375,24.300001,0,
2022-04-15 10:48:31.453,-0.11917761,-0.07223416,0.21131505,40.4971582,-86.9160304,20.88928,0.24680662,0.04602337,0.032302856,-4.6971107,7.77787,1.4153546,46.275,-17.081251,24.375002,0,
2022-04-15 10:48:31.652,0.12783033,0.21179071,0.03218471,40.4971582,-86.9160304,20.88928,-0.11069965,0.19313717,0.11258501,-4.8825545,7.88794,-0.062213387,46.29375,-17.0625,24.281252,1,
2022-04-15 10:48:31.852,-0.102845006,0.053426966,-0.20410378,40.4969729,-86.9160278,20.670866,-0.10325384,-0.19758463,0.07340884,-6.029315,7.4159555,1.4997016,46.3125,-17.1,24.187502,0,
2022-04-15 10:48:32.053,-0.07385049,-0.047320217,0.15257867,40.4969729,-86.9160278,20.670866,0.17206001,0.036327362,0.0070013404,-6.0041904,8.482556,0.2015953,46.29375,-17.175001,24.13125,0,
2022-04-15 10:48:32.252,0.0040810327,-0.0214119,0.06915777,40.4969729,-86.9160278,20.670866,0.057371616,0.0427351,-0.011837661,-4.767101,8.274381,1.1958131,46.237503,-17.475,24.075,0,
2022-04-15 10:48:32.453,-0.009215735,0.09285578,0.046082925,40.4969729,-86.9160278,20.670866,-0.0099105835,0.055146217,0.087700844,-5.5513487,8.090134,1.4691931,46.2,-17.71875,24.187502,0,
2022-04-15 10:48:32.653,0.038865738,-0.036883406,0.023661925,40.4969729,-86.9160278,20.670866,0.01263237,0.0277462,-0.0500139,-5.945566,8.353942,1.0097711,46.21875,-17.75625,24.225,0,
2022-04-15 10:48:32.853,-0.11874903,-0.33436784,0.09186551,40.4967852,-86.9160239,20.381319,0.2707019,-0.12852526,-0.21105498,-5.0189457,7.969296,0.802792,46.237503,-17.8125,24.375002,0,
2022-04-15 10:48:33.052,-0.23622073,-0.0744482,0.12582569,40.4967852,-86.9160239,20.381319,0.25117397,-0.09601879,0.069763124,-4.8011985,8.38804,1.3609179,46.275,-17.737501,24.35625,1,
2022-04-15 10:48:33.252,0.35054213,0.34013408,0.070130624,40.4967852,-86.9160239,20.381319,-0.21850252,0.39591312,0.1974811,-3.3230324,8.712866,0.68075806,46.237503,-17.85,24.4125,0,
2022-04-15 10:48:33.452,0.4751649,0.21905771,0.061391488,40.4967852,-86.9160239,20.381319,-0.31976795,0.41400433,-0.06233543,-5.1900325,8.10449,1.3800604,46.3125,-17.775002,24.487501,1,
2022-04-15 10:48:33.652,-0.3191504,-0.10828762,-0.2202796,40.4967852,-86.9160239,20.381319,9.074211E-4,-0.40167475,-0.027620137,-2.3874388,8.355139,0.4426722,46.425003,-17.60625,24.562502,1,
2022-04-15 10:48:33.851,-0.017763305,-0.030128201,0.19274174,40.4966029,-86.91602,20.071354,0.1689763,0.098937035,-0.005576074,-4.2454658,8.300702,0.6358926,46.40625,-17.38125,24.6375,1,
2022-04-15 10:48:34.052,0.031021595,0.020374034,-0.14236741,40.4966029,-86.91602,20.071354,-0.119494915,-0.08390617,-0.018073022,-6.439684,7.6343007,0.9631111,46.3875,-17.306252,24.618752,0,
2022-04-15 10:48:34.251,0.030154794,-0.033956304,0.021599542,40.4966029,-86.91602,20.071354,0.012962818,0.023107529,-0.042742133,-5.1200423,8.741579,0.78364944,46.40625,-17.268751,24.50625,1,
2022-04-15 10:48:34.451,0.23360758,0.11817765,0.05115361,40.4966029,-86.91602,20.071354,-0.13550806,0.22847843,-0.024296701,-5.1535416,7.982456,0.5724828,46.3875,-17.325,24.393751,1,
2022-04-15 10:48:34.651,0.13935432,-0.108330406,-0.036088668,40.4966029,-86.91602,20.071354,-0.056227207,0.025475502,-0.16925424,-5.625526,8.562118,0.7531409,46.350002,-17.325,24.393751,1,
2022-04-15 10:48:34.851,-0.021852333,-0.101813264,-0.06799894,40.4964222,-86.9160165,19.89082,0.0064616203,-0.10264492,-0.069925606,-6.087341,8.09791,0.25244278,46.36875,-17.25,24.50625,0,
2022-04-15 10:48:35.051,0.0070160907,-0.06424323,-0.086184844,40.4964222,-86.9160165,19.89082,-0.031166553,-0.08061123,-0.06430179,-6.1639113,8.341978,1.0588241,46.275,-17.2875,24.562502,0,
2022-04-15 10:48:35.251,0.084053576,-0.014507063,-0.059251294,40.4964222,-86.9160165,19.89082,-0.083440304,0.005759239,-0.061568826,-5.71765,8.201998,0.2739782,46.162502,-17.34375,24.54375,0,
2022-04-15 10:48:35.451,0.011087861,-0.1085237,0.056185752,40.4964222,-86.9160165,19.89082,0.079042435,-0.0015745163,-0.093845546,-5.7517476,7.939984,0.09451649,46.18125,-17.25,24.712502,0,
2022-04-15 10:48:35.65,-0.0075220466,-0.12527691,-4.450814E-4,40.4964222,-86.9160165,19.89082,0.03761959,-0.059000015,-0.104186594,-4.8394837,8.263015,-0.40677986,46.125,-17.1375,24.69375,0,
2022-04-15 10:48:35.851,-0.011824284,-0.15709819,0.09871535,40.4962399,-86.9160151,19.939741,0.13675117,0.011224747,-0.12544915,-3.6831522,7.683952,0.8985049,45.9375,-16.96875,24.675001,0,
2022-04-15 10:48:36.05,0.15612614,0.057454083,-0.19039705,40.4962399,-86.9160151,19.939741,-0.23611212,-0.04932785,-0.0757972,-7.400402,7.7832537,0.5617151,45.768753,-16.875,24.431252,1,
2022-04-15 10:48:36.25,-0.11104238,0.42509347,0.05112055,40.4962399,-86.9160151,19.939741,-0.010223389,0.13617516,0.42071363,-5.2695937,9.108877,-0.49172506,46.068752,-17.493752,24.0375,0,
2022-04-15 10:48:36.45,1.384462,0.21041764,-0.07697602,40.4962399,-86.9160151,19.939741,-0.79880714,1.1285868,-0.23480766,-2.3670998,7.1449685,-0.08135597,46.443752,-17.6625,24.4125,1,
2022-04-15 10:48:36.65,-0.71710634,-1.1885134,-0.3120553,40.4962399,-86.9160151,19.939741,0.8531976,-1.005475,-0.53409576,-5.2103715,6.6257257,1.3483555,46.575,-17.56875,24.69375,0,
2022-04-15 10:48:36.85,-0.45594227,-0.018402621,-0.31047678,40.4960608,-86.916013,20.02957,0.025282383,-0.49496412,0.24287698,-6.1716876,8.771489,0.15254244,46.6875,-17.56875,24.900002,1,
2022-04-15 10:48:37.05,0.8423682,0.5145441,0.4656118,40.4960608,-86.916013,20.02957,-0.4109974,0.99944305,-0.15273778,-7.440482,8.505886,0.35234314,46.706253,-17.643751,24.937502,0,
2022-04-15 10:48:37.25,0.46124226,0.057650715,-0.10667769,40.4960608,-86.916013,20.02957,-0.35201025,0.23378849,-0.22108802,-5.1924253,7.0899334,-0.38823548,46.706253,-17.681252,25.050001,1,
2022-04-15 10:48:37.45,-0.19037022,-0.5450094,-0.40283918,40.4960608,-86.916013,20.02957,0.052906036,-0.6150999,-0.33824328,-6.233901,8.469994,0.32123643,46.800003,-17.8125,25.312502,0,
2022-04-15 10:48:37.65,-0.0489438,0.024257384,-0.084006585,40.4960608,-86.916013,20.02957,-0.046230793,-0.075201035,0.047418773,-5.2277193,8.700901,-0.17228323,46.96875,-17.85,25.7625,1,
2022-04-15 10:48:37.85,0.22358629,0.002426684,0.03135529,40.4958821,-86.9160111,20.079773,-0.10297632,0.15939999,-0.122341305,-5.829514,8.578269,0.40618163,46.65,-17.175001,26.23125,0,
2022-04-15 10:48:38.049,0.1514819,0.16869989,-0.064023025,40.4958821,-86.9160111,20.079773,-0.19904995,0.11726475,0.04618959,-6.070591,8.245069,-0.024526432,46.29375,-16.893751,25.9125,0,
2022-04-15 10:48:38.25,0.08187144,-0.090802,-0.19052501,40.4958821,-86.9160111,20.079773,-0.16115713,-0.103217125,-0.12092279,-4.6989055,7.9160557,0.050847482,46.18125,-16.85625,25.7625,1,
2022-04-15 10:48:38.45,-0.31971073,-0.2862894,0.023471087,40.4958821,-86.9160111,20.079773,0.30471277,-0.29567814,-0.06672348,-5.209773,8.090732,0.3481557,46.0875,-16.725,25.687502,0,
2022-04-15 10:48:38.65,-0.15385738,-0.08451274,0.16478029,40.4958821,-86.9160111,20.079773,0.2392931,-0.019587517,0.017949581,-5.7373905,8.312666,0.0065802624,46.068752,-16.556252,25.63125,1,
2022-04-15 10:48:38.849,0.18762997,0.3362462,0.11910406,40.4957021,-86.9160092,20.17932,-0.15339565,0.33194447,0.16951373,-5.9449677,8.445468,0.22552353,46.125,-16.40625,25.687502,0,
2022-04-15 10:48:39.049,0.17201209,0.077696465,-0.051803004,40.4957021,-86.9160092,20.17932,-0.1643877,0.099087715,-0.038298294,-5.8654065,8.1738825,0.22313072,46.2,-16.25625,25.7625,0,
2022-04-15 10:48:39.248,-0.10672469,-0.10720656,-0.08889375,40.4957021,-86.9160092,20.17932,0.020685196,-0.17143345,-0.031115904,-4.67737,7.509874,-0.34217364,46.18125,-16.087502,25.781252,0,
2022-04-15 10:48:39.449,-0.19520493,-0.21413161,0.13705726,40.4957021,-86.9160092,20.17932,0.27837086,-0.13501644,-0.08379875,-4.67737,7.509874,-0.34217364,46.237503,-15.975,25.968752,1,
2022-04-15 10:48:39.649,0.09418764,6.9354847E-4,0.03321241,40.4957021,-86.9160092,20.17932,-0.025536537,0.0834589,-0.048552573,-4.9405804,8.251649,-0.22492532,46.162502,-15.88125,25.968752,1,
2022-04-15 10:48:39.849,-0.070551254,-0.27532795,-0.123834096,40.4955241,-86.9160068,20.150797,0.084950924,-0.23730421,-0.18052118,-6.227919,7.987242,0.57846487,46.29375,-15.731251,26.00625,1,
2022-04-15 10:48:40.049,0.14833304,0.21621475,-0.049781606,40.4955241,-86.9160068,20.150797,-0.19592905,0.15478992,0.094242215,-5.706882,8.215756,-0.2656033,46.29375,-15.731251,26.1,1,
2022-04-15 10:48:40.249,0.20638642,0.013750471,-0.17830169,40.4955241,-86.9160068,20.150797,-0.25253344,0.017332077,-0.10248108,-5.239683,7.906484,-0.0035892338,46.275,-15.731251,26.250002,0,
2022-04-15 10:48:40.449,-0.19444302,-0.18368508,-0.15086572,40.4955241,-86.9160068,20.150797,0.06792545,-0.29719973,-0.03697575,-5.925825,8.344969,-0.014356935,46.2,-15.731251,26.268751,0,
2022-04-15 10:48:40.649,0.019648466,0.09651843,-0.047020633,40.4955241,-86.9160068,20.150797,-0.08352518,0.02017212,0.06730111,-5.743971,8.179864,0.083748795,46.162502,-15.712501,26.2875,1,
2022-04-15 10:48:40.848,0.021634134,-0.056700997,-0.07672495,40.4953355,-86.916004,20.49873,-0.063220024,-0.052298546,-0.053271446,-4.4602213,8.493324,-0.84765744,46.162502,-15.675,26.343752,1,
2022-04-15 10:48:41.049,-0.07116836,-0.10238086,-0.11246219,40.4953355,-86.916004,20.49873,-0.0027489662,-0.16250944,-0.042162195,-5.7601223,8.082955,0.0077766734,46.18125,-15.618751,26.400002,1,
2022-04-15 10:48:41.249,0.038610667,0.12030068,-0.10028451,40.4953355,-86.916004,20.49873,-0.13924122,0.011043549,0.08068421,-5.499305,8.1738825,-0.24047868,46.21875,-15.6,26.456251,0,
2022-04-15 10:48:41.449,0.007412173,-0.094043165,0.21522807,40.4953355,-86.916004,20.49873,0.19151354,0.10443783,-0.08739269,-5.499305,8.1738825,-0.24047868,46.03125,-15.618751,26.456251,0,
2022-04-15 10:48:41.648,-0.0789475,-0.11961191,0.13746265,40.4953355,-86.916004,20.49873,0.19300413,-1.0585785E-4,-0.046744965,-5.9473605,7.8610206,0.07238288,46.03125,-15.543751,26.475,0,
2022-04-15 10:48:41.847,0.04709491,0.09526724,0.0761209,40.495152,-86.9160001,20.699787,0.0012536049,0.12057972,0.050469086,-5.505885,8.333005,-0.39541394,46.050003,-15.431251,26.475,1,
2022-04-15 10:48:42.048,0.038739458,-0.052482355,-0.041735046,40.495152,-86.9160001,20.699787,-0.036881924,-0.021018028,-0.06476823,-4.8239303,8.350353,-0.012562319,46.0125,-15.4875,26.56875,1,
2022-04-15 10:48:42.247,-0.027500935,0.036694564,0.026243178,40.495152,-86.9160001,20.699787,0.022868156,0.01570034,0.044967145,-5.3072805,8.098508,-0.28713873,45.956253,-15.6,26.625002,0,
2022-04-15 10:48:42.447,0.012913168,-0.015185357,0.042896915,40.495152,-86.9160001,20.699787,0.030497551,0.029089928,-0.021474771,-5.4227343,8.046464,-0.3804588,45.9375,-15.675,26.7,0,
2022-04-15 10:48:42.647,-0.08159103,-0.08274165,0.0014983563,40.495152,-86.9160001,20.699787,0.080367565,-0.08103132,-0.021920279,-5.426922,7.8945203,0.23868406,45.825,-15.76875,26.625002,0,
2022-04-15 10:48:42.847,-0.12829061,-0.19098002,0.025405336,40.4949654,-86.9159951,20.899746,0.164927,-0.13800764,-0.08561688,-5.4466624,8.022536,0.12263216,45.787502,-15.825001,26.550001,0,
2022-04-15 10:48:43.047,-0.017677754,0.13350734,0.008168631,40.4949654,-86.9159951,20.899746,-0.03102827,0.05039978,0.12124584,-5.47418,8.359924,-0.14416756,45.881252,-15.95625,26.56875,0,
2022-04-15 10:48:43.247,0.1904545,0.101222984,4.418931E-4,40.4949654,-86.9159951,20.899746,-0.14424658,0.15871143,-0.022865029,-5.2683973,7.7886376,-0.0047856453,45.91875,-16.03125,26.531252,0,
2022-04-15 10:48:43.447,-0.2779998,-0.34000623,0.12778594,40.4949654,-86.9159951,20.899746,0.37832785,-0.22411108,-0.12593499,-5.2683973,7.7886376,-0.0047856453,45.956253,-16.143751,26.587502,0,
2022-04-15 10:48:43.647,0.091079354,0.18410027,-0.04660616,40.4949654,-86.9159951,20.899746,-0.15679216,0.09978962,0.09908953,-5.65424,8.139785,0.0317049,45.99375,-16.143751,26.41875,0,
2022-04-15 10:48:43.847,0.1321071,0.11567302,-0.01922495,40.4947716,-86.9159906,21.15967,-0.13692617,0.1107893,0.013382245,-6.0323057,8.082955,0.16031912,46.03125,-16.06875,26.343752,0,
2022-04-15 10:48:44.047,0.04405762,0.01307976,0.01322143,40.4947716,-86.9159906,21.15967,-0.018558979,0.042377472,-0.012110908,-4.907081,7.9561353,-0.081954174,45.99375,-16.06875,26.212502,0,
2022-04-15 10:48:44.246,-0.14589421,-0.22973269,0.0595972,40.4947716,-86.9159906,21.15967,0.20006037,-0.15705442,-0.11368297,-5.341378,8.075178,-0.43489552,46.03125,-16.050001,26.1,0,
2022-04-15 10:48:44.446,-0.13116251,-0.08892795,-0.1113673,40.4947716,-86.9159906,21.15967,0.017839909,-0.19280386,-0.004783172,-5.204389,8.26122,-0.047856454,45.99375,-16.10625,26.00625,0,
2022-04-15 10:48:44.646,0.07919428,0.11122698,-0.05182668,40.4947716,-86.9159906,21.15967,-0.1153326,0.06753969,0.0588724,-4.800002,8.384451,-0.32123643,45.9375,-16.087502,25.893751,0,
2022-04-15 10:48:44.846,0.14268382,0.01817935,0.044707876,40.494578,-86.9159873,21.429628,-0.0503788,0.13011646,-0.05674187,-4.6815577,7.8664045,0.12323037,45.91875,-16.143751,25.85625,0,
2022-04-15 10:48:45.047,-0.08158449,-0.09181202,0.053764705,40.494578,-86.9159873,21.429628,0.11795616,-0.054789066,-0.03256717,-5.393422,8.2660055,-0.047258247,45.956253,-16.21875,25.706251,0,
2022-04-15 10:48:45.246,0.11492114,0.10118881,-0.046105433,40.494578,-86.9159873,21.429628,-0.13631916,0.08183861,0.017067095,-5.4382877,7.772486,-0.008374879,45.975002,-16.237501,25.725,0,
2022-04-15 10:48:45.446,-1.094304E-4,-0.10578343,-0.057641245,40.494578,-86.9159873,21.429628,-0.0018396378,-0.08376503,-0.08656035,-5.4382877,7.772486,-0.008374879,45.91875,-16.3875,25.706251,0,
2022-04-15 10:48:45.646,-0.16420391,-0.15094875,0.030536525,40.494578,-86.9159873,21.429628,0.1682272,-0.14510298,-0.036409672,-5.209773,7.9722867,0.03888337,45.9,-16.462502,25.66875,0,
2022-04-15 10:48:45.846,0.111690335,0.15213412,-0.02377197,40.494387,-86.9159849,21.73964,-0.13809443,0.116223335,0.060055785,-5.640481,8.00459,-0.012562319,45.91875,-16.518751,25.612501,0,
2022-04-15 10:48:46.046,0.10581429,0.015828632,-0.10643501,40.494387,-86.9159849,21.73964,-0.14257765,-0.0033111572,-0.049358588,-5.72423,7.81795,-0.034695927,46.050003,-16.518751,25.650002,0,
2022-04-15 10:48:46.246,-0.057946198,-0.05357475,-0.09368637,40.494387,-86.9159849,21.73964,-0.023319721,-0.11934614,-0.014759442,-4.784449,7.867601,-0.089132644,46.068752,-16.575,25.66875,0,
2022-04-15 10:48:46.446,-0.028980255,-0.035767045,-0.08146516,40.494387,-86.9159849,21.73964,-0.03283882,-0.08649778,-0.013980561,-5.2576294,8.055437,-0.015553347,46.050003,-16.59375,25.650002,0,
2022-04-15 10:48:46.645,0.0399327,0.050831597,-0.06625845,40.494387,-86.9159849,21.73964,-0.09132385,-0.0019936562,0.014987798,-6.2159553,7.7886376,-0.025124637,46.050003,-16.59375,25.556252,0,
2022-04-15 10:48:46.845,0.0069785044,-0.052392624,-0.033498667,40.4941905,-86.9159832,22.099583,-0.008728981,-0.04101658,-0.04644667,-5.6392846,7.9561353,-0.096311115,45.975002,-16.650002,25.556252,0,
2022-04-15 10:48:47.045,-0.013169602,-8.1102224E-4,-0.024762187,40.4941905,-86.9159832,22.099583,-0.009733677,-0.02515173,0.007740042,-6.65444,8.120044,-0.008374879,46.0125,-16.650002,25.48125,0,
2022-04-15 10:48:47.245,0.1485883,0.10380853,0.014174577,40.4941905,-86.9159832,22.099583,-0.10510969,0.14824629,0.0055321334,-5.1828537,7.948957,-0.18005991,46.0875,-16.706251,25.35,0,
2022-04-15 10:48:47.445,-0.026932575,-0.028213182,0.022826044,40.4941905,-86.9159832,22.099583,0.04172659,-0.014620304,-0.0093548875,-5.1828537,7.948957,-0.18005991,46.050003,-16.78125,25.312502,0,
2022-04-15 10:48:47.646,0.08444018,9.459257E-5,-0.09115861,40.4941905,-86.9159832,22.099583,-0.11354017,-0.013487816,-0.048649304,-5.843871,7.5571322,-0.3044867,45.99375,-16.81875,25.29375,0,
2022-04-15 10:48:47.845,-0.15839526,-0.13307732,-0.09855486,40.4941905,-86.9159832,22.5578,0.06087351,-0.21971226,-0.023078859,-5.313861,7.9716887,0.019740786,45.99375,-16.837502,25.143751,0,
2022-04-15 10:48:48.044,0.017833522,0.07159224,0.09252722,40.4941905,-86.9159832,22.5578,0.02657795,0.10719299,0.04252112,-6.3134627,7.827521,-0.21714866,46.0125,-16.893751,25.1625,0,
2022-04-15 10:48:48.245,0.11686988,-0.014977224,-0.056571633,40.4941905,-86.9159832,22.5578,-0.10043001,0.026676178,-0.0792807,-5.378467,7.663613,-0.019142581,45.9375,-16.987501,25.181252,0,
2022-04-15 10:48:48.445,-0.1754948,-0.10083164,-0.004019146,40.4941905,-86.9159832,22.5578,0.12423134,-0.15969992,0.006642306,-5.0135617,8.10449,-0.16031912,46.0125,-17.04375,25.06875,0,
2022-04-15 10:48:48.644,0.07007002,0.061928608,0.08493344,40.4941905,-86.9159832,22.5578,-0.0016818047,0.12578487,0.011575252,-5.8127646,8.181659,0.19800608,46.0125,-17.081251,25.050001,0,
2022-04-15 10:48:48.844,0.068369575,-0.017433517,0.021289451,40.4937806,-86.9159753,22.975153,-0.014909267,0.04981804,-0.052224934,-5.325825,8.12782,-0.078963146,46.03125,-17.081251,25.050001,1,
2022-04-15 10:48:49.044,-0.25690708,-0.25546768,0.05552933,40.4937806,-86.9159753,22.975153,0.2904892,-0.2109685,-0.0738702,-5.103891,8.122437,0.93320084,46.0875,-17.1375,25.125002,0,
2022-04-15 10:48:49.244,0.2792055,0.18016434,-0.051184285,40.4937806,-86.9159753,22.975153,-0.26871347,0.20095158,0.021124827,-3.918247,7.55115,1.6307086,46.0875,-17.175001,24.975,0,
2022-04-15 10:48:49.444,0.14341575,-0.033412322,0.06151198,40.4937806,-86.9159753,22.975153,-0.02047205,0.13511467,-0.08242029,-3.918247,7.55115,1.6307086,46.0125,-17.23125,24.956251,0,
2022-04-15 10:48:49.644,-0.28479776,-0.30365413,0.0687419,40.4937806,-86.9159753,22.975153,0.33712006,-0.23247766,-0.10171171,-4.738985,7.7629147,1.1018949,46.0125,-17.212502,24.712502,0,
2022-04-15 10:48:49.844,0.15392546,0.12298313,0.10857125,40.4935692,-86.9159688,23.617142,-0.048371315,0.21657181,0.0369118,-4.5170507,7.7910304,0.64845496,45.975002,-17.212502,24.581251,0,
2022-04-15 10:48:50.044,-0.06900124,-0.1428238,0.0028084393,40.4935692,-86.9159688,23.617142,0.09260988,-0.10276365,-0.077657826,-6.031708,8.644072,-0.06460621,45.99375,-17.25,24.50625,0,
2022-04-15 10:48:50.243,0.14376016,0.38991636,-0.1181007,40.4935692,-86.9159688,23.617142,-0.3048172,0.19996738,0.23183842,-5.8193445,7.763513,-0.526421,45.99375,-17.268751,24.375002,0,
2022-04-15 10:48:50.443,0.1483935,-0.19370778,0.05416348,40.4935692,-86.9159688,23.617142,0.040263653,0.06538868,-0.23786588,-5.069195,7.865208,0.78065836,45.9375,-17.38125,24.45,0,
2022-04-15 10:48:50.643,-0.2651213,-0.176494,0.079013966,40.4935692,-86.9159688,23.617142,0.2539773,-0.20632839,-0.024632517,-4.673781,8.248658,-0.21355942,45.91875,-17.5125,24.487501,0,
2022-04-15 10:48:50.843,-0.09415007,-0.007611405,-0.02598738,40.4933553,-86.9159625,24.16694,0.040867805,-0.07673168,0.045161746,-6.25424,7.7796645,2.498107,45.975002,-17.56875,24.618752,0,
2022-04-15 10:48:51.043,0.23833488,0.21571426,-0.06953289,40.4933553,-86.9159625,24.16694,-0.2607236,0.19665813,0.038984083,-5.633901,7.893922,-0.26081768,46.050003,-17.681252,24.656252,0,
2022-04-15 10:48:51.243,-0.08426986,-0.033119984,-0.06042454,40.4933553,-86.9159625,24.16694,-5.2690506E-4,-0.10817003,0.012183301,-4.0773697,8.26122,-0.7046863,46.068752,-17.75625,24.73125,0,
2022-04-15 10:48:51.443,-0.0892359,-0.0046233013,0.06761298,40.4933553,-86.9159625,24.16694,0.10354853,-0.030467987,0.03008888,-4.0773697,8.26122,-0.7046863,46.143753,-17.831251,24.675001,0,
2022-04-15 10:48:51.643,-5.6700036E-4,0.06428227,0.053732637,40.4933553,-86.9159625,24.16694,0.029372692,0.05850029,0.05229426,-4.770092,8.429316,-0.68494546,46.0875,-17.831251,24.618752,0,
2022-04-15 10:48:51.843,0.117618784,0.06824686,-0.037682373,40.4931309,-86.9159599,24.732191,-0.1208086,0.07250595,-0.007742554,-4.9268217,7.980662,1.0139586,46.10625,-17.831251,24.525002,0,
2022-04-15 10:48:52.043,-0.039775074,-0.040335927,-0.00783113,40.4931309,-86.9159599,24.732191,0.028715134,-0.046868324,-0.015785173,-4.475775,7.914261,0.3062813,46.162502,-17.775002,24.300001,0,
2022-04-15 10:48:52.243,-0.047533423,3.3053197E-4,-0.033401094,40.4931309,-86.9159599,24.732191,-2.3317337E-4,-0.05352831,0.022579506,-4.703691,8.03809,0.46959144,46.2,-17.6625,24.056252,0,
2022-04-15 10:48:52.443,0.0768894,0.0066189673,0.16741098,40.4931309,-86.9159599,24.732191,0.04813528,0.17766953,0.009937838,-6.1417775,7.8071823,3.1304102,46.275,-17.5125,23.94375,0,
2022-04-15 10:48:52.643,0.05620659,0.13258687,-0.047415502,40.4931309,-86.9159599,24.732191,-0.112605095,0.06447697,0.07841875,-5.7146587,8.352147,-0.1585245,46.2,-17.5125,23.79375,0,
2022-04-15 10:48:52.843,0.25449622,0.2958113,-0.062514916,40.4929046,-86.9159576,25.267336,-0.30982256,0.23308659,0.07655965,-6.5318074,8.420342,0.19980069,46.143753,-17.493752,23.681252,0,
