timestamp,accWrtEarthX,accWrtEarthY,accWrtEarthZ,lat,long,speed,accLiX,accLiY,accLiZ,accX,accY,accZ,magX,magY,magZ,anomalyStatus,
2022-04-15 10:16:45.929,0.0,0.0,0.0,40.4296746,-86.9103404,0.7371706,0.0,0.0,0.0,-1.0863415,5.1122656,8.252846,28.275002,9.056251,-2.8500001,0,
2022-04-15 10:16:46.127,0.017790899,-0.075035214,0.008755675,40.4296746,-86.9103404,0.7371706,0.069143414,-0.009152412,-0.03404236,-1.1246266,5.0644093,8.143971,27.4125,8.925,-3.5812502,0,
2022-04-15 10:16:46.326,0.09648928,-0.06729804,-0.098120786,40.4296746,-86.9103404,0.7371706,0.030963778,0.077507496,-0.12845516,-1.0301101,5.078766,8.1738825,27.056252,8.306251,-3.3750002,0,
2022-04-15 10:16:46.53,0.06302289,-0.05913236,-0.05694764,40.4296746,-86.9103404,0.7371706,0.033147693,0.044908047,-0.08715534,-1.1724831,5.2773705,8.001599,27.656252,8.587501,-2.9625,0,
2022-04-15 10:16:46.726,0.03889865,0.022113312,0.012913845,40.4296698,-86.9103437,0.72866464,0.001568675,0.042741776,0.018426895,-1.0600204,5.221139,8.170293,27.73125,8.475,-3.43125,0,
2022-04-15 10:16:46.927,0.01923805,0.06400028,-0.08685529,40.4296698,-86.9103437,0.72866464,-0.09271073,0.04290676,-0.03966999,-1.1676974,5.2893343,8.082955,28.275002,8.00625,-3.1875002,0,
2022-04-15 10:16:47.126,-0.062951684,-0.046520136,0.11645923,40.4296698,-86.9103437,0.72866464,0.08666909,-0.08707762,0.06779194,-0.11964113,6.4343,8.897711,28.031252,6.7125,-3.2812502,0,
2022-04-15 10:16:47.326,0.45956454,0.35768974,-0.18154883,40.4296698,-86.9103437,0.72866464,-0.27395946,0.5298977,0.12749958,0.33499518,6.971489,7.426125,29.737501,4.1625004,-5.49375,0,
2022-04-15 10:16:47.526,0.70486784,0.75002563,0.9682318,40.4296698,-86.9103437,0.72866464,0.6041031,0.8163967,0.9825506,-1.5314065,6.9535427,4.031906,35.53125,-0.0375,-6.6375003,0,
2022-04-15 10:16:47.725,-0.56566316,-1.1072197,1.4612044,40.4296657,-86.9103476,0.7059383,1.6751977,-0.83116674,-0.42883873,-3.1202407,9.162118,2.7792635,41.86875,-1.0875001,-2.6625001,0,
2022-04-15 10:16:47.925,-0.27733877,-1.4597644,-0.89443827,40.4296657,-86.9103476,0.7059383,-0.11305761,-0.8023486,-1.533396,-3.0592237,8.467003,4.063013,41.30625,-7.8187504,-0.5625,0,
2022-04-15 10:16:48.125,-0.7538407,0.0473451,0.1090408,40.4296657,-86.9103476,0.7059383,0.10554719,-0.7160964,0.24181175,-2.329413,9.538987,1.9585253,38.7,-14.38125,-2.5500002,0,
2022-04-15 10:16:48.325,0.43144107,-0.8783938,-1.0866616,40.4296657,-86.9103476,0.7059383,-0.9140699,0.62650204,-0.95421267,0.7573284,7.978867,0.93679005,34.537502,-26.343752,-7.1625004,0,
2022-04-15 10:16:48.525,0.16653308,-0.15008558,-0.48552305,40.4296657,-86.9103476,0.7059383,-0.3240664,-0.20608044,-0.37216043,-3.9098723,7.1342006,3.1369905,30.2625,-37.575,-9.675,0,
2022-04-15 10:16:48.726,0.8432934,-1.830195,0.5332456,40.4296654,-86.9103505,0.869729,0.5646874,-0.4107561,-1.9640559,-3.958925,12.68196,0.7716853,28.406252,-46.59375,-24.16875,0,
2022-04-15 10:16:48.924,0.04054545,0.47496235,1.8546958,40.4296654,-86.9103505,0.869729,1.0770282,0.74182034,1.3988719,-1.6941184,7.8460655,5.2701917,30.4125,-49.36875,-23.400002,0,
2022-04-15 10:16:49.124,-0.17895447,0.28031078,-1.7747247,40.4296654,-86.9103505,0.869729,-1.6680465,-0.6060853,-0.33245778,-2.745764,9.129815,3.629912,30.13125,-54.506252,-18.862501,0,
2022-04-15 10:16:49.324,0.58740854,-0.002392903,1.027109,40.4296654,-86.9103505,0.869729,-0.23931932,1.1392632,0.21169162,-3.8668015,7.692925,4.2041893,32.287502,-56.775,-17.8125,0,
2022-04-15 10:16:49.524,-0.37677556,0.844036,-0.032907456,40.4296654,-86.9103505,0.869729,-0.15272331,-0.34024048,0.84637547,-3.7076788,7.9274216,3.4863427,30.862501,-57.750004,-16.59375,0,
2022-04-15 10:16:49.724,-0.43649924,0.21046966,-0.6377766,40.4296683,-86.9103509,1.4857287,-0.2765696,-0.7374792,0.14567637,-3.6598222,8.7266245,3.109473,29.906252,-58.518753,-16.25625,0,
2022-04-15 10:16:49.924,0.14718582,0.10246745,-0.07638901,40.4296683,-86.9103509,1.4857287,-0.16948462,0.09086609,0.031888008,-2.4035904,8.560323,2.9419754,27.375002,-60.506252,-14.7375,0,
2022-04-15 10:16:50.123,0.24935974,0.35686263,-1.219168,40.4296683,-86.9103509,1.4857287,-1.2917032,-0.085515976,-0.009562731,-0.42831525,8.5220375,2.4765713,21.150002,-63.16875,-13.368751,0,
2022-04-15 10:16:50.323,0.17562005,0.11978864,0.36155438,40.4296683,-86.9103509,1.4857287,-0.18043971,-0.36423588,0.10337818,-3.5102708,9.286545,1.4991034,20.925001,-63.843754,-12.1125,0,
2022-04-15 10:16:50.523,-0.088156864,-0.15542173,-0.24586076,40.4296683,-86.9103509,1.4857287,-0.24326563,0.10348797,-0.14995706,-2.8833513,9.608379,1.1162517,21.88125,-62.100002,-11.3625,0,
2022-04-15 10:16:50.723,0.1532319,-0.15805352,-0.5393974,40.4296775,-86.91035,1.8790668,-0.5113771,0.07736015,-0.268178,-1.2909278,9.475577,1.6845472,21.50625,-62.1375,-9.975,0,
2022-04-15 10:16:50.923,0.3411962,0.07424335,-0.6667939,40.4296775,-86.91035,1.8790668,-0.7337011,0.07305527,-0.1512835,-1.6235301,8.720642,2.2145574,22.3125,-61.068752,-11.400001,0,
2022-04-15 10:16:51.122,0.48857632,0.04952254,-0.16362782,40.4296775,-86.91035,1.8790668,0.39533186,0.3163004,-0.107703924,-3.0388846,9.471989,0.34456646,23.362501,-60.506252,-12.450001,0,
2022-04-15 10:16:51.323,0.00893113,-0.53472614,0.24783589,40.4296775,-86.91035,1.8790668,-0.04370022,-0.30724716,-0.50112265,-3.2135608,9.686146,0.36610186,24.656252,-59.943752,-13.031251,0,
2022-04-15 10:16:51.522,-0.5259526,-0.7649956,-0.85997814,40.4296775,-86.91035,1.8790668,-1.0555348,0.016640663,-0.69783664,-2.181058,9.432507,0.8279166,24.6,-59.04375,-14.812501,0,
2022-04-15 10:16:51.722,-0.26042253,-0.6966238,-0.28285992,40.4296926,-86.9103443,2.661695,-0.51454306,-0.012041092,-0.60680705,-2.9252257,9.430114,0.70348984,24.900002,-59.025,-15.843751,0,
2022-04-15 10:16:51.922,-0.31549484,-0.8532784,-0.37293583,40.4296926,-86.9103443,2.661695,-0.6574781,0.065979004,-0.72806007,-2.9886355,9.38824,0.29072794,26.1,-58.93125,-15.975,0,
2022-04-15 10:16:52.122,-0.56277716,-1.2359958,-0.3945456,40.4296926,-86.9103443,2.661695,-0.96758866,-0.05125332,-1.030153,-2.8199415,9.312865,0.2632105,26.23125,-59.5125,-18.393751,0,
2022-04-15 10:16:52.322,-0.20962852,-0.90147805,-0.13496827,40.4296926,-86.9103443,2.661695,-0.5258224,-0.037944794,-0.7725893,-3.5210385,9.230313,0.41874397,27.487501,-59.23125,-19.462502,0,
2022-04-15 10:16:52.522,-0.34244952,-0.62575424,-0.08178586,40.4296926,-86.9103443,2.661695,-0.5588131,-0.034905434,-0.449487,-3.932604,9.438489,0.5192425,28.087502,-60.037502,-20.1,0,
2022-04-15 10:16:52.723,-1.1314538,-0.6370535,-0.5474638,40.4297178,-86.9103347,4.0728645,-1.3838792,-0.068790436,-0.25668555,-3.1920254,9.042477,0.57906306,29.493752,-60.037502,-20.475,0,
2022-04-15 10:16:52.921,-1.1288466,-0.80680954,-0.1604895,40.4297178,-86.9103347,4.0728645,-1.3327858,-0.24471092,-0.3388096,-3.6227336,9.116654,0.37567315,29.94375,-60.35625,-21.09375,0,
2022-04-15 10:16:53.122,-0.7734326,-0.41399592,0.107154794,40.4297178,-86.9103347,4.0728645,-0.8470311,-0.25073242,-0.027283072,-4.4913282,9.194421,0.49651068,32.025,-59.2125,-20.0625,0,
2022-04-15 10:16:53.321,-0.8934882,-0.4575154,-0.19077282,40.4297178,-86.9103347,4.0728645,-1.014046,-0.11816788,-0.0422253,-4.3034916,9.147761,0.45702913,33.35625,-57.91875,-20.75625,0,
2022-04-15 10:16:53.522,-0.91757464,-0.48370746,-0.060928375,40.4297178,-86.9103347,4.0728645,-1.0280147,-0.1501503,0.01640451,-5.063213,9.037691,1.6761723,34.818752,-57.562504,-21.69375,0,
2022-04-15 10:16:53.722,-0.6531991,-0.2041029,-0.21939485,40.4297714,-86.9103466,5.5061164,-0.6854577,-0.21371555,0.03057018,-3.5730824,9.3816595,0.5096712,36.112503,-58.0125,-21.956251,0,
2022-04-15 10:16:53.92,-0.31044218,0.00320559,-0.119547196,40.4297714,-86.9103466,5.5061164,-0.30328512,-0.09351635,0.09974462,-3.403192,9.19801,0.86919284,36.1875,-58.031254,-21.825,0,
2022-04-15 10:16:54.12,-0.1505844,0.29445934,0.029349787,40.4297714,-86.9103466,5.5061164,-0.038134336,-0.046535492,0.3265327,-2.922833,9.799805,0.87158567,36.61875,-57.9,-21.73125,0,
2022-04-15 10:16:54.32,-0.17553468,0.72116566,0.10163072,40.4297714,-86.9103466,5.5061164,0.041451216,-0.025301933,0.74757123,-2.4281168,9.646665,0.71425754,36.9375,-57.937504,-21.825,0,
2022-04-15 10:16:54.52,0.36332494,0.48421988,0.7828583,40.4297714,-86.9103466,5.5061164,0.8649514,0.009760857,0.48073372,-1.8514465,9.277572,0.9601201,37.29375,-57.825,-21.618752,0,
2022-04-15 10:16:54.72,0.3782822,0.5675998,0.6661501,40.4298332,-86.9103631,5.611335,0.8293612,-0.06119442,0.46630248,-2.7098715,9.343972,0.3930211,37.78125,-57.693752,-21.5625,0,
2022-04-15 10:16:54.92,0.26011965,0.49098644,0.51551795,40.4298332,-86.9103631,5.611335,0.57023287,0.09412384,0.4903711,-1.8484555,9.626326,1.1527423,38.0625,-57.600002,-21.487501,0,
2022-04-15 10:16:55.119,0.27625623,0.5381828,1.0858192,40.4298332,-86.9103631,5.611335,1.0578825,-0.047034264,0.6508716,-1.2005987,9.180662,1.3651053,38.625,-57.656254,-21.431252,0,
2022-04-15 10:16:55.319,0.50029075,0.4892819,0.6627079,40.4298332,-86.9103631,5.611335,0.8772186,0.093185425,0.38816655,-2.2839491,9.489336,0.4408776,39.09375,-57.768753,-21.337502,0,
2022-04-15 10:16:55.519,0.09688551,0.3289119,0.33892506,40.4298332,-86.9103631,5.611335,0.34871745,-0.009673119,0.33278012,-2.0691934,9.645468,0.9631111,39.525,-57.881252,-21.45,0,
2022-04-15 10:16:55.719,0.23866741,0.13676934,0.3782544,40.4299005,-86.9103865,6.6824164,0.44340086,0.06367397,0.1344831,-1.4626129,9.870992,0.9164511,39.75,-58.143753,-21.375,0,
2022-04-15 10:16:55.919,0.02447303,0.09665743,0.15768893,40.4299005,-86.9103865,6.6824164,0.15127468,-0.029396057,0.10516286,-2.41376,9.995419,1.1479566,40.03125,-58.29375,-21.1875,0,
2022-04-15 10:16:56.119,0.089675665,0.14266545,0.0953728,40.4299005,-86.9103865,6.6824164,0.11950314,0.07615757,0.13194752,-2.1391835,9.756136,1.3639089,40.331253,-58.350002,-21.0375,0,
2022-04-15 10:16:56.319,-0.010207757,0.1019696,-0.12195022,40.4299005,-86.9103865,6.6824164,-0.10202813,0.074920654,0.09670061,-1.8526429,9.687941,0.42711884,40.59375,-58.406254,-21.0,0,
2022-04-15 10:16:56.521,0.084370025,-0.0013479148,0.20476314,40.4299005,-86.9103865,6.6824164,0.22101855,-0.0130729675,0.0052875876,-1.9591235,9.754341,1.1300105,40.912502,-58.48125,-21.0,0,
2022-04-15 10:16:56.718,0.005623259,0.054811668,-0.013376004,40.4299755,-86.9103985,7.621042,-0.012610793,0.020309448,0.051413536,-1.4255241,9.360723,1.1132607,40.987503,-58.593754,-21.0,0,
2022-04-15 10:16:56.919,-0.04702977,-0.07511903,0.041139074,40.4299755,-86.9103985,7.621042,0.01863885,-0.07687378,-0.057359457,-2.0374885,9.071191,1.1694921,41.175003,-58.537502,-20.79375,0,
2022-04-15 10:16:57.118,-0.0970296,-8.6702313E-4,-0.22216806,40.4299755,-86.9103985,7.621042,-0.24018717,0.032489777,0.0053547025,-2.431706,9.610174,0.7848458,41.4,-58.500004,-20.587502,0,
2022-04-15 10:16:57.318,-0.121856295,-0.042084664,-0.109537765,40.4299755,-86.9103985,7.621042,-0.14999652,-0.07256889,-0.029213011,-1.9148563,9.531809,1.0767702,41.550003,-58.4625,-20.493752,0,
2022-04-15 10:16:57.52,-0.02712253,0.107664935,-0.015142024,40.4299755,-86.9103985,7.621042,-0.028793812,0.002120018,0.10827315,-1.5762719,9.567701,1.0845468,41.550003,-58.48125,-20.60625,0,
2022-04-15 10:16:57.717,-0.11762385,-0.1192082,-0.097994596,40.4300566,-86.9103986,8.5121155,-0.14160728,-0.09399128,-0.09360516,-2.7852457,9.426525,1.3537394,41.5125,-58.631252,-20.79375,0,
2022-04-15 10:16:57.917,-0.15179671,0.26163405,-0.040967494,40.4300566,-86.9103986,8.5121155,-0.10958266,-0.032193184,0.28306925,-2.842075,9.518648,1.6923238,41.287502,-59.006252,-20.85,0,
2022-04-15 10:16:58.118,-0.2556886,0.088112965,-0.51736856,40.4300566,-86.9103986,8.5121155,-0.5796896,0.009181023,0.0684576,-2.842075,9.518648,1.6923238,40.143753,-59.86875,-21.0,0,
2022-04-15 10:16:58.317,-0.051877774,-0.10891329,0.2410751,40.4300566,-86.9103986,8.5121155,0.21194857,-0.14322853,-0.08505297,-0.1369891,9.683753,0.91346,38.68125,-60.80625,-21.13125,0,
2022-04-15 10:16:58.517,-0.12627012,0.25831676,-0.04380728,40.4300566,-86.9103986,8.5121155,-0.10801622,-0.10532379,0.24865669,0.58683974,9.973883,0.37088752,36.91875,-62.006252,-21.225,0,
2022-04-15 10:16:58.717,-0.22852576,0.3400181,-0.12187339,40.4301423,-86.9103992,9.220007,-0.23362476,-0.20878887,0.2907166,1.2520444,9.553345,1.1569297,34.987503,-63.300003,-21.0375,0,
2022-04-15 10:16:58.916,0.2630081,0.037634827,0.462918,40.4301423,-86.9103992,9.220007,0.52908045,0.03215313,0.062631905,-0.9667004,10.257433,1.1174482,33.487503,-64.3125,-21.018751,0,
2022-04-15 10:16:59.117,0.07909587,0.21046516,0.23613326,40.4301423,-86.9103992,9.220007,0.2247323,6.170273E-4,0.23623222,-0.3188436,9.643075,1.2442678,32.100002,-65.3625,-20.962502,0,
2022-04-15 10:16:59.316,0.04339874,0.034074657,0.25060233,40.4301423,-86.9103992,9.220007,0.2417222,-0.06079483,0.06099528,-0.253041,9.74477,1.1066805,30.656252,-66.356255,-20.79375,0,
2022-04-15 10:16:59.516,0.0063811634,0.073774554,0.06625033,40.4301423,-86.9103992,9.220007,0.055773705,-0.018742561,0.08006573,-0.035294134,9.674182,0.9822537,29.343752,-67.200005,-20.5125,0,
2022-04-15 10:16:59.716,0.090194725,-0.06912714,0.0041567073,40.4302317,-86.9104026,10.027664,0.047773317,0.07827759,-0.0672403,0.12323037,9.330214,0.87936234,28.987501,-67.443756,-20.19375,0,
2022-04-15 10:16:59.916,-0.09903077,-0.008016456,0.096354775,40.4302317,-86.9104026,10.027664,0.030433655,-0.13437176,0.013176441,-1.1593226,9.994222,1.0229317,29.04375,-67.575005,-19.95,0,
2022-04-15 10:17:00.116,-0.08622538,0.08630225,-0.004455653,40.4302317,-86.9104026,10.027664,-0.050644338,-0.05801487,0.094721556,-1.1593226,9.994222,1.0229317,29.362501,-67.481255,-19.85625,0,
2022-04-15 10:17:00.316,-0.015092389,0.10822716,0.03090503,40.4302317,-86.9104026,10.027664,0.012053281,-0.019646645,0.111196876,-0.16869399,9.663414,1.0600204,29.831251,-67.293755,-19.987501,0,
2022-04-15 10:17:00.515,0.05991368,0.11332375,0.0663816,40.4302317,-86.9104026,10.027664,0.06271128,0.038648605,0.12414515,0.37088752,9.504292,1.4273187,29.962502,-67.3125,-20.1,0,
2022-04-15 10:17:00.718,0.036297802,-0.0028441492,0.13838066,40.4303253,-86.9104041,10.438773,0.1412081,-0.019346237,0.012681484,-0.046660043,9.772287,1.1144571,30.000002,-67.350006,-20.1,0,
2022-04-15 10:17:00.915,0.013141052,-0.074292086,0.10056304,40.4303253,-86.9104041,10.438773,0.10858917,-0.024315834,-0.058498383,-0.19621146,9.552746,1.46022,30.093752,-67.425,-20.175001,0,
2022-04-15 10:17:01.115,-0.06998711,-0.048055105,0.027611181,40.4303253,-86.9104041,10.438773,0.010660455,-0.08170414,-0.034360647,-1.0689936,9.735199,1.8340986,30.243752,-67.425,-20.38125,0,
2022-04-15 10:17:01.315,0.15405318,0.1071567,-0.030327955,40.4303253,-86.9104041,10.438773,0.008101888,0.15380001,0.11142099,0.56410795,9.55813,1.189831,30.2625,-67.4625,-20.53125,0,
2022-04-15 10:17:01.515,0.07979385,0.069803834,-0.076401785,40.4303253,-86.9104041,10.438773,-0.060265064,0.10096359,0.057020545,0.09750752,11.106286,1.8460627,30.2625,-67.51875,-20.643751,0,
2022-04-15 10:17:01.715,-0.11396567,0.07796071,0.15724853,40.4304217,-86.910403,10.819213,0.091356315,-0.17130756,0.07810819,1.0007981,10.27837,0.77347994,30.281252,-67.6875,-20.737501,0,
2022-04-15 10:17:01.914,-0.11713838,-0.15969074,0.06608809,40.4304217,-86.910403,10.819213,0.032905325,-0.15617752,-0.13459563,-1.0522437,10.295119,1.6642082,30.225,-67.818756,-20.737501,0,
2022-04-15 10:17:02.115,-0.07120054,0.25730008,-0.22471662,40.4304217,-86.910403,10.819213,-0.23359618,0.0632391,0.25140417,-0.058624156,9.533604,0.2644069,30.375002,-67.6875,-20.5125,0,
2022-04-15 10:17:02.316,0.22764009,0.04490515,0.2481169,40.4304217,-86.910403,10.819213,0.31861144,0.10641861,0.050599217,-1.1419746,9.556933,1.2987045,30.993752,-67.33125,-20.268751,0,
2022-04-15 10:17:02.514,0.13791655,-0.05356524,0.2673746,40.4304217,-86.910403,10.819213,0.29819906,-0.042147636,-0.051771283,-1.7084754,9.579067,0.90807617,32.268753,-66.543755,-19.66875,0,
2022-04-15 10:17:02.714,-0.070252225,-0.11673872,-0.0068102498,40.4305204,-86.9104014,10.996404,-0.06533563,-0.076909065,-0.09179288,-2.9449666,9.790234,0.9403793,34.0125,-65.568756,-18.73125,0,
2022-04-15 10:17:02.914,-0.05880819,0.013946945,-0.34129724,40.4305204,-86.9104014,10.996404,-0.3150859,0.14433384,-0.005035579,-2.902494,9.278768,1.0235299,36.018753,-64.36875,-17.587502,0,
2022-04-15 10:17:03.116,-0.41997164,-0.2791369,-0.6279339,40.4305204,-86.9104014,10.996404,-0.7722976,-0.11123562,-0.19944334,-2.6811578,9.407382,0.7268199,38.025,-63.15,-16.35,0,
2022-04-15 10:17:03.314,-0.41363993,0.014031693,-0.4869021,40.4305204,-86.9104014,10.996404,-0.61541915,-0.14727879,0.08908856,-2.5274189,9.332606,0.6430711,39.91875,-61.893753,-15.225,0,
2022-04-15 10:17:03.514,-0.22047405,-0.051871147,-0.622552,40.4305204,-86.9104014,10.996404,-0.64379,-0.1304884,-0.0858928,-2.2941186,8.742178,1.3447664,41.756252,-60.656254,-14.175,0,
2022-04-15 10:17:03.713,-0.261304,-0.11910412,-0.23993921,40.4306216,-86.9103985,11.140612,-0.32033372,-0.18335342,-0.06167823,-2.539383,8.99462,0.71007013,41.756252,-60.656254,-14.175,0,
2022-04-15 10:17:03.913,-0.084391505,-0.05868327,-0.20406513,40.4306216,-86.9103985,11.140612,-0.22102237,-0.036650658,-0.044878364,-3.1914272,9.466604,0.80159557,44.550003,-58.93125,-12.675,0,
2022-04-15 10:17:04.113,-0.06406511,-0.033398837,-0.16495442,40.4306216,-86.9103985,11.140612,-0.17668891,-0.024867058,-0.024340093,-3.1914272,9.466604,0.80159557,45.075,-58.500004,-12.31875,0,
2022-04-15 10:17:04.313,-0.0056424253,0.14736004,0.047373734,40.4306216,-86.9103985,11.140612,0.038487673,0.034246445,0.14607179,-3.0849466,9.374481,1.0863415,45.131252,-58.406254,-12.262501,0,
2022-04-15 10:17:04.512,-0.007947141,0.0024861607,0.0133154495,40.4306216,-86.9103985,11.140612,0.0114581585,-0.008946419,0.0059423447,-2.5088747,9.538987,1.1533405,45.018753,-58.55625,-12.50625,0,
2022-04-15 10:17:04.712,0.0071195215,0.09606872,0.05478973,40.430723,-86.9104004,11.322839,0.049844027,0.026220322,0.09544563,-2.9216363,9.51805,1.1503495,44.90625,-58.687504,-12.88125,0,
2022-04-15 10:17:04.912,0.026782935,-0.0011149328,-0.11229445,40.430723,-86.9104004,11.322839,-0.10595369,0.03941059,-0.023435712,-2.498107,9.18784,1.3190435,44.8125,-58.800003,-13.106251,0,
2022-04-15 10:17:05.113,-0.020833284,0.048488136,0.06996397,40.430723,-86.9104004,11.322839,0.060098886,-0.0067720413,0.063421965,-3.4253256,9.123235,1.6109679,44.925003,-58.74375,-13.25625,0,
2022-04-15 10:17:05.313,-0.011199916,0.12996559,-0.05851824,40.430723,-86.9104004,11.322839,-0.065425634,0.042227745,0.119904876,-2.929413,9.400204,1.1306087,45.018753,-58.687504,-13.33125,0,
2022-04-15 10:17:05.511,-0.072371826,-0.12262737,-0.09189218,40.430723,-86.9104004,11.322839,-0.10127497,-0.07077789,-0.1159879,-1.5493526,9.141779,0.7639086,45.09375,-58.7625,-13.462501,0,
2022-04-15 10:17:05.712,-0.16305143,-0.08585493,0.11241127,40.4308296,-86.9104051,11.426691,0.09735155,-0.19081783,-0.026539922,-2.312663,9.236296,1.4267205,45.09375,-58.7625,-13.462501,0,
2022-04-15 10:17:05.912,-0.09738013,0.041568153,0.20991845,40.4308296,-86.9104051,11.426691,0.18692088,-0.10650349,0.09483743,-2.3958137,9.150154,1.396212,44.943752,-58.8375,-13.51875,0,
2022-04-15 10:17:06.112,0.005900048,-0.038820345,0.066759504,40.4308296,-86.9104051,11.426691,0.070417404,-0.014349937,-0.028881311,-2.3958137,9.150154,1.396212,44.381252,-58.818752,-14.156251,0,
2022-04-15 10:17:06.311,-0.008771723,0.039981686,-0.068272024,40.4308296,-86.9104051,11.426691,-0.073079586,0.010030746,0.02992165,-2.228316,9.26142,1.4847465,44.23125,-58.800003,-14.250001,0,
2022-04-15 10:17:06.511,0.07735965,0.08206586,-0.09120071,40.4308296,-86.9104051,11.426691,-0.075796366,0.11392689,0.048088074,-2.4484558,9.335598,1.1958131,44.100002,-58.7625,-14.38125,0,
2022-04-15 10:17:06.713,0.08799159,-0.10754995,-0.0089454595,40.4309365,-86.9104091,11.528316,0.01850915,0.03790188,-0.13270414,-4.000201,9.616755,1.777269,43.78125,-58.781254,-14.437501,0,
2022-04-15 10:17:06.911,0.00942645,0.068347044,0.026239604,40.4309365,-86.9104091,11.528316,0.021493673,0.02859974,0.064566016,-3.2871401,9.26142,1.5308083,43.425003,-58.74375,-14.475,0,
2022-04-15 10:17:07.111,-0.01461784,-0.13261013,0.23029095,40.4309365,-86.9104091,11.528316,0.22034621,-0.10658169,-0.104503274,-2.0937197,9.632906,0.9212367,42.956253,-58.443752,-14.606251,0,
2022-04-15 10:17:07.31,-0.04686691,0.03009459,0.039801113,40.4309365,-86.9104091,11.528316,0.026018143,-0.045449257,0.044087887,-1.6809579,8.228917,1.1958131,43.0125,-58.125004,-15.093751,0,
2022-04-15 10:17:07.51,0.04550703,-0.02428434,0.09051445,40.4309365,-86.9104091,11.528316,0.10062671,0.004675865,-0.026568532,-3.1884363,9.41157,1.1904292,43.537502,-58.425003,-15.6,0,
2022-04-15 10:17:07.71,0.011326075,-0.050387487,-0.2684671,40.4310428,-86.9104083,11.7158375,-0.25198865,0.06280804,-0.08543205,-2.6650062,9.423533,1.2610176,43.537502,-58.425003,-15.6,0,
2022-04-15 10:17:07.909,0.07310388,-0.03252897,-0.12956145,40.4310428,-86.9104083,11.7158375,-0.10345602,0.08974171,-0.066571474,-2.501098,9.6783695,1.3411771,43.85625,-60.037502,-16.03125,0,
2022-04-15 10:17:08.11,0.097332746,0.11017208,-0.12554735,40.4310428,-86.9104083,11.7158375,-0.1025722,0.15047264,0.06488931,-2.501098,9.6783695,1.3411771,43.631252,-60.24375,-15.993751,0,
2022-04-15 10:17:08.31,6.995462E-4,-0.13109706,0.17475535,40.4310428,-86.9104083,11.7158375,0.1744914,-0.08088398,-0.10361898,-2.4741786,9.362516,1.2442678,43.55625,-60.393753,-16.1625,0,
2022-04-15 10:17:08.509,0.025106277,0.10600488,-0.050234668,40.4310428,-86.9104083,11.7158375,-0.0608716,0.058989525,0.08488679,-2.4837499,9.326026,1.8370895,43.65,-60.61875,-16.44375,0,
2022-04-15 10:17:08.712,0.010735992,-0.0543785,0.018584937,40.4311457,-86.9104091,11.906003,0.02207923,-0.010346413,-0.05313325,-2.466402,9.92483,1.0677971,43.800003,-61.237503,-16.78125,0,
2022-04-15 10:17:08.909,0.0016819381,0.017570518,-0.058481645,40.4311457,-86.9104091,11.906003,-0.05449891,0.025927544,0.009449124,-2.7936203,8.993423,1.0899308,43.5,-61.968754,-16.35,0,
2022-04-15 10:17:09.109,-0.06649235,-0.07003434,-0.003252633,40.4311457,-86.9104091,11.906003,-0.010783434,-0.08273125,-0.04874301,-2.7248268,9.4229355,1.4877375,43.0875,-61.55625,-15.225,0,
2022-04-15 10:17:09.31,-0.014819655,-0.025360554,-0.029370837,40.4311457,-86.9104091,11.906003,-0.028393984,-0.016555786,-0.025399089,-2.231307,9.278768,1.463211,43.03125,-60.206253,-14.45625,0,
2022-04-15 10:17:09.509,0.05775012,0.08522112,0.03472116,40.4311457,-86.9104091,11.906003,0.031476498,0.07749939,0.06932783,-2.82712,9.147761,1.6486548,43.29375,-59.175003,-14.45625,0,
2022-04-15 10:17:09.708,0.06698727,0.018793238,-0.044464976,40.4312536,-86.9104054,12.193888,-0.037424564,0.07282162,-0.0106784105,-2.888735,8.894122,1.6893328,43.65,-58.725002,-14.475,0,
2022-04-15 10:17:09.909,-0.03901955,-0.03789654,-0.0031456202,40.4312536,-86.9104054,12.193888,-4.506111E-4,-0.048602104,-0.024621129,-2.7188447,8.660822,1.7611175,43.93125,-58.406254,-14.400001,0,
2022-04-15 10:17:10.109,-0.11332774,-0.12303846,0.19220848,40.4312536,-86.9104054,12.193888,0.1983726,-0.15336514,-0.045312047,-2.7188447,8.660822,1.7611175,43.93125,-58.406254,-14.400001,0,
2022-04-15 10:17:10.308,0.194991,0.28996003,-0.384595,40.4312536,-86.9104054,12.193888,-0.40214562,0.29293346,0.14993489,-2.7918258,9.513863,1.82692,44.737503,-57.675003,-14.118751,0,
2022-04-15 10:17:10.509,-0.001966538,-0.10560071,0.002870893,40.4312536,-86.9104054,12.193888,0.003931284,-0.032567024,-0.10043681,-2.6009982,9.311669,0.9314062,45.037502,-57.35625,-14.343751,0,
2022-04-15 10:17:10.708,-0.34198412,-0.4737745,-0.16731545,40.4313612,-86.9104,12.405623,-0.09481001,-0.4606161,-0.38503724,-2.7637103,9.395418,2.0889342,45.018753,-57.525,-14.83125,0,
2022-04-15 10:17:10.908,0.46635425,0.68817735,0.26554757,40.4313612,-86.9104,12.405623,0.3685484,0.35792065,0.7054465,0.26620153,10.213763,0.2117648,44.831253,-57.843754,-14.981251,0,
2022-04-15 10:17:11.108,0.1806083,-0.17804489,-0.17224163,40.4313612,-86.9104,12.405623,-0.10870576,0.22562695,-0.1768108,0.26620153,10.213763,0.2117648,44.831253,-57.843754,-14.981251,0,
2022-04-15 10:17:11.307,-0.40330735,-0.32557464,0.13901785,40.4313612,-86.9104,12.405623,-0.018432856,-0.5202179,-0.13044214,-4.11386,9.954143,1.2077773,44.8875,-58.218754,-14.7375,0,
2022-04-15 10:17:11.507,-0.07515758,0.18608543,-0.0037173536,40.4313612,-86.9104,12.405623,-0.03421688,-0.038586617,0.19398594,-1.527219,9.557532,1.0833504,44.8875,-58.218754,-14.7375,0,
2022-04-15 10:17:11.708,-0.050344825,-0.089836344,0.17615326,40.4314714,-86.910402,12.595808,0.16548848,-0.11242199,-0.040124774,-3.423531,8.898309,1.3657036,44.850002,-58.331253,-14.156251,0,
2022-04-15 10:17:11.908,-0.09952896,0.022505732,0.06854078,40.4314714,-86.910402,12.595808,0.03795886,-0.10421276,0.05300176,-2.5040889,9.571291,0.90329057,44.925003,-58.0125,-14.025001,0,
2022-04-15 10:17:12.111,0.017745981,0.057433315,-0.075754724,40.4314714,-86.910402,12.595808,-0.068951845,0.051617622,0.043972135,-2.5040889,9.571291,0.90329057,44.925003,-58.0125,-14.025001,0,
2022-04-15 10:17:12.308,-0.002848547,-0.08141334,0.047015574,40.4314714,-86.910402,12.595808,0.05149436,-0.037368774,-0.06927204,-3.0203404,9.156136,1.3316058,45.300003,-57.825,-13.81875,0,
2022-04-15 10:17:12.508,-0.0911659,-0.01941783,-0.114969894,40.4314714,-86.910402,12.595808,-0.13528872,-0.05978489,-0.0053930283,-2.5489542,9.552746,0.87338024,45.300003,-57.825,-13.81875,0,
2022-04-15 10:17:12.708,-0.026574854,0.05862379,-0.07741362,40.4315815,-86.910406,12.746909,-0.07944918,0.021990776,0.05779338,-3.257828,9.026923,0.76689965,45.54375,-57.675003,-13.6125,0,
2022-04-15 10:17:12.907,0.002230157,-0.0036293166,0.08446223,40.4315815,-86.910406,12.746909,0.08304024,-0.013830185,0.008065939,-4.229314,9.322437,1.5002998,45.84375,-57.45,-13.593751,0,
2022-04-15 10:17:13.107,-0.014124732,0.09015717,0.0043251775,40.4315815,-86.910406,12.746909,-0.0032224655,0.025612831,0.08763635,-4.229314,9.322437,1.5002998,45.975002,-57.468754,-14.343751,0,
2022-04-15 10:17:13.308,0.008268121,-0.03476581,0.10911231,40.4315815,-86.910406,12.746909,0.11371112,-0.0070238113,-0.014246583,-2.909074,9.192028,1.8669999,45.975002,-57.468754,-14.343751,0,
2022-04-15 10:17:13.508,-0.019868273,0.18708107,-0.15301064,40.4315815,-86.910406,12.746909,-0.13400483,0.103429794,0.17364132,-3.4360933,9.842278,0.62811595,45.9375,-57.80625,-14.531251,0,
2022-04-15 10:17:13.707,0.105487466,-0.06248484,-0.011433447,40.4316939,-86.9104076,12.896873,0.020587206,0.071045876,-0.09844458,-3.760919,9.19143,1.2000005,45.825,-58.068752,-14.437501,0,
2022-04-15 10:17:13.905,-0.11028268,-0.11495006,-0.084181145,40.4316939,-86.9104076,12.896873,-0.096903086,-0.12352085,-0.08840048,-2.7415764,9.004191,1.2699906,45.84375,-58.0875,-14.2875,0,
2022-04-15 10:17:14.105,-0.14013927,-0.0422744,0.045295127,40.4316939,-86.9104076,12.896873,0.017506838,-0.1520853,0.0064311028,-2.7415764,9.004191,1.2699906,45.881252,-58.050003,-14.325001,0,
2022-04-15 10:17:14.305,-0.020256452,0.0834394,0.041181553,40.4316939,-86.9104076,12.896873,0.029875755,0.0027341843,0.09037888,-3.2727833,9.468997,1.4081762,45.84375,-58.10625,-14.3625,0,
2022-04-15 10:17:14.505,0.0165109,-0.05334877,0.08193568,40.4316939,-86.9104076,12.896873,0.09151435,-0.0015459061,-0.03814304,-3.165106,9.005388,1.9645073,45.7125,-58.29375,-14.2875,0,
2022-04-15 10:17:14.705,-0.14363487,-0.037118137,0.32168463,40.4318102,-86.9104109,13.04664,0.3071673,-0.1574583,0.07965469,-3.8757744,9.34457,1.896312,45.768753,-58.350002,-14.08125,0,
2022-04-15 10:17:14.905,0.12782235,0.24326433,-0.16850796,40.4318102,-86.9104109,13.04664,-0.14779472,0.24363804,0.15069258,-3.8033917,9.08794,1.3429717,45.9,-58.18125,-13.5375,0,
2022-04-15 10:17:15.105,0.13004225,-0.10021646,-0.35409558,40.4318102,-86.9104109,13.04664,-0.31196713,0.1386671,-0.18917167,-3.8033917,9.08794,1.3429717,46.29375,-57.825,-13.406251,0,
2022-04-15 10:17:15.305,0.048592813,0.16436459,-0.3693063,40.4318102,-86.9104109,13.04664,-0.37622404,0.13347149,0.08003116,-3.1046875,9.285348,1.5750755,46.537502,-57.6375,-13.593751,0,
2022-04-15 10:17:15.504,-0.14763072,-0.18222976,0.21460202,40.4318102,-86.9104109,13.04664,0.21967459,-0.2043953,-0.10498655,-2.1092732,8.670393,1.4859428,46.443752,-57.768753,-13.687501,0,
2022-04-15 10:17:15.706,-0.27432334,0.03846386,0.35616663,40.4319303,-86.9104157,13.089663,0.31997538,-0.2495184,0.1973418,-3.4672,9.08136,1.8293129,46.3875,-57.73125,-13.762501,0,
2022-04-15 10:17:15.904,0.010370176,0.09896084,-0.020618614,40.4319303,-86.9104157,13.089663,-0.025781393,0.03894329,0.09024775,-2.3306093,9.332606,1.1940185,46.350002,-57.73125,-13.687501,0,
2022-04-15 10:17:16.104,-0.02633201,-0.02843567,0.09824111,40.4319303,-86.9104157,13.089663,0.09316468,-0.048924446,-0.008945346,-2.3306093,9.332606,1.1940185,46.3875,-57.562504,-13.70625,0,
2022-04-15 10:17:16.304,-0.00997411,0.04792603,0.17446652,40.4319303,-86.9104157,13.089663,0.16022897,0.010270119,0.084000945,-2.9832516,9.253643,2.0739791,46.350002,-57.600002,-13.875001,0,
2022-04-15 10:17:16.503,-0.014314264,-0.016133403,-0.006744572,40.4319303,-86.9104157,13.089663,-0.00795722,-0.016781807,-0.01287353,-2.4131618,9.424132,1.3160524,46.143753,-57.937504,-14.2875,0,
2022-04-15 10:17:16.704,-0.03311567,0.07155752,-0.021833023,40.4320479,-86.9104224,13.0602255,-0.037127495,-0.007964134,0.07247019,-3.1076784,9.067003,1.9585253,45.65625,-58.3875,-14.418751,0,
2022-04-15 10:17:16.903,-0.04004994,-0.07599682,0.15398416,40.4320479,-86.9104224,13.0602255,0.14374208,-0.09068966,-0.046949267,-2.3724837,9.546764,1.0773684,45.2625,-58.687504,-14.118751,0,
2022-04-15 10:17:17.103,-0.0074239727,0.08520278,-0.01181618,40.4320479,-86.9104224,13.0602255,-0.017753363,0.017363548,0.08268964,-2.3724837,9.546764,1.0773684,45.225002,-58.537502,-13.70625,0,
2022-04-15 10:17:17.303,0.02049292,-0.02402554,-0.060211033,40.4320479,-86.9104224,13.0602255,-0.053575277,0.016773224,-0.03835237,-2.559722,8.667402,1.5062819,45.3375,-58.29375,-13.44375,0,
2022-04-15 10:17:17.502,-0.0034375703,-0.053806573,0.054128796,40.4320479,-86.9104224,13.0602255,0.0612998,-0.01959896,-0.04117167,-2.333002,9.524033,1.7437695,45.506252,-57.975002,-13.668751,0,
2022-04-15 10:17:17.703,0.055726793,0.20198548,-0.09957702,40.4321652,-86.9104283,13.167445,0.0010464191,0.12106228,0.19789398,-1.655235,7.489535,-1.1473584,45.525,-58.050003,-13.89375,0,
2022-04-15 10:17:17.902,-0.019898027,-0.12684841,-0.18361527,40.4321652,-86.9104283,13.167445,0.043329716,-0.13885212,-0.17042196,-4.390231,6.9224358,4.273581,45.375,-58.237503,-14.00625,0,
2022-04-15 10:17:18.103,0.020998456,-0.17830949,-0.34480172,40.4321652,-86.9104283,13.167445,0.0034816265,-0.24365139,-0.3028949,-4.390231,6.9224358,4.273581,45.225002,-58.36875,-13.968751,0,
2022-04-15 10:17:18.304,0.1103363,0.67469,-0.15123513,40.4321652,-86.9104283,13.167445,-0.2699275,0.355628,0.53937054,-4.0677986,9.768699,2.1218355,45.318752,-58.331253,-13.875001,0,
2022-04-15 10:17:18.502,0.27465335,0.05894288,-0.11009299,40.4321652,-86.9104283,13.167445,-0.055569887,0.29391575,-0.039429665,-2.9126635,9.401401,1.3238292,45.35625,-58.237503,-13.931251,0,
2022-04-15 10:17:18.701,-0.07085684,0.023617096,-0.116779275,40.4322846,-86.9104358,13.29745,-0.12910104,-0.04334736,0.025880218,-2.676372,8.796016,1.3435699,45.412502,-58.2,-13.837501,0,
2022-04-15 10:17:18.901,0.03847717,0.03186331,0.008934561,40.4322846,-86.9104358,13.29745,0.008528471,0.046586037,0.018237233,-3.1752756,8.813364,1.6648064,45.5625,-58.125004,-13.81875,0,
2022-04-15 10:17:19.102,0.07500854,0.12458619,-0.22391921,40.4322846,-86.9104358,13.29745,-0.23008657,0.12540913,0.05119121,-3.1752756,8.813364,1.6648064,45.5625,-58.18125,-13.743751,0,
2022-04-15 10:17:19.301,-0.06921418,-0.076545656,-0.13961624,40.4322846,-86.9104358,13.29745,-0.15155101,-0.04650402,-0.07079685,-2.050649,9.326026,0.7609176,45.525,-58.275,-13.875001,0,
2022-04-15 10:17:19.501,-0.038873658,-0.01289776,0.1291475,40.4322846,-86.9104358,13.29745,0.12392235,-0.04899025,0.024490714,-3.5563326,9.122038,1.7258233,45.412502,-58.350002,-13.875001,0,
2022-04-15 10:17:19.701,0.046486616,0.11571907,0.018266274,40.432401,-86.9104373,13.2708,0.04451847,0.060528755,0.10119259,-2.335993,9.326625,0.12861422,45.45,-58.18125,-13.81875,0,
2022-04-15 10:17:19.901,-0.058046613,-0.16111879,-0.10796294,40.432401,-86.9104373,13.2708,-0.08590102,-0.11294937,-0.1443888,-3.9188452,9.449855,1.9268204,45.375,-58.10625,-13.950001,0,
2022-04-15 10:17:20.105,0.026518438,0.19339453,-0.09374119,40.432401,-86.9104373,13.2708,-0.12022996,0.10230827,0.14822233,-3.9188452,9.449855,1.9268204,45.2625,-58.125004,-13.9875,0,
2022-04-15 10:17:20.301,0.13017614,0.022872044,0.10507651,40.432401,-86.9104373,13.2708,0.12903047,0.10885525,-0.0034211874,-2.8295128,8.971291,1.2436695,45.16875,-58.050003,-14.025001,0,
2022-04-15 10:17:20.5,-0.1031702,-0.09124215,0.08700963,40.432401,-86.9104373,13.2708,0.054610014,-0.14692974,-0.04437673,-3.1369905,9.373882,1.0408778,45.05625,-58.10625,-14.137501,0,
2022-04-15 10:17:20.7,-0.04519541,0.0162425,-0.09428463,40.4325144,-86.9104476,13.358036,-0.10075641,-0.029982567,0.0120511055,-2.7044878,9.0341015,1.6295122,44.925003,-58.312504,-14.212501,0,
2022-04-15 10:17:20.9,0.03525959,0.0025957888,-0.006175503,40.4325144,-86.9104476,13.358036,-0.001014471,0.034680367,-0.009184599,-2.8492537,8.878569,1.5134603,44.756252,-58.4625,-13.9875,0,
2022-04-15 10:17:21.1,-0.039870072,-0.008509504,0.040401787,40.4325144,-86.9104476,13.358036,0.035756588,-0.043652534,0.01050055,-2.8492537,8.878569,1.5134603,44.9625,-58.162502,-13.312501,0,
2022-04-15 10:17:21.3,0.0037435857,-0.016855255,0.027944311,40.4325144,-86.9104476,13.358036,0.028799295,-0.0073394775,-0.013990402,-2.8863423,9.507881,1.1156535,45.318752,-57.787502,-13.25625,0,
2022-04-15 10:17:21.499,0.053259514,0.10186565,-0.027922183,40.4325144,-86.9104476,13.358036,-0.039455414,0.086156845,0.070803285,-3.3146574,9.010174,1.7862421,45.375,-57.9,-13.593751,0,
2022-04-15 10:17:21.7,-0.021670273,-0.08406183,0.03195178,40.432631,-86.910453,13.291798,0.029328346,-0.05253887,-0.07025969,-2.8492537,9.44148,1.0893325,45.412502,-58.0125,-13.481251,0,
2022-04-15 10:17:21.899,0.0077469544,0.03379305,0.03924744,40.432631,-86.910453,13.291798,0.038281918,0.007852554,0.03485942,-2.3569303,9.592826,1.026521,45.61875,-57.956253,-13.44375,0,
2022-04-15 10:17:22.099,0.06087384,0.07075104,-0.054682057,40.432631,-86.910453,13.291798,-0.042668104,0.086912155,0.04824078,-2.3569303,9.592826,1.026521,45.75,-57.825,-13.593751,0,
2022-04-15 10:17:22.299,-0.056899235,-0.1014895,0.09921336,40.432631,-86.910453,13.291798,0.11263156,-0.08068943,-0.06468606,-2.184647,9.290133,1.905285,45.84375,-57.9,-13.931251,0,
2022-04-15 10:17:22.499,0.011237487,0.2619103,-0.122050576,40.432631,-86.910453,13.291798,-0.1360972,0.11286926,0.22881806,-2.8582265,9.438489,1.3339987,45.91875,-58.143753,-14.306251,0,
2022-04-15 10:17:22.698,0.06399031,-0.05222155,0.006066031,40.432753,-86.9104591,13.407265,0.01985383,0.048719406,-0.063960075,-2.2576282,8.605786,1.9238294,45.787502,-58.631252,-14.6625,0,
2022-04-15 10:17:22.898,-0.18931115,-0.09854275,-0.026630186,40.432753,-86.9104591,13.407265,-0.0076580048,-0.20639133,-0.060021043,-1.8568304,8.422736,1.975275,45.393753,-59.04375,-14.512501,0,
2022-04-15 10:17:23.098,-0.21297535,0.033463184,0.040685363,40.432753,-86.9104591,13.407265,0.03139472,-0.19953823,0.0856297,-1.8568304,8.422736,1.975275,45.206253,-59.006252,-13.931251,0,
2022-04-15 10:17:23.298,0.075528204,0.21120209,0.16101071,40.432753,-86.9104591,13.407265,0.12907434,0.11284733,0.21642685,-2.0590239,9.499506,1.7904296,45.2625,-58.631252,-13.781251,0,
2022-04-15 10:17:23.498,-0.0010478683,0.122411825,0.01823592,40.432753,-86.9104591,13.407265,0.011924505,0.037352562,0.11739206,-3.185445,9.205787,1.2215359,45.35625,-58.3875,-14.025001,0,
2022-04-15 10:17:23.697,-0.03628483,0.010534867,-0.15234318,40.4328755,-86.9104686,13.106803,-0.15398407,-0.028968811,-0.009259343,-2.8396823,8.986844,1.881955,45.393753,-58.500004,-14.2875,0,
2022-04-15 10:17:23.898,-0.011885492,0.14131007,-0.033220254,40.4328755,-86.9104686,13.106803,-0.053685427,0.024301529,0.13319421,-2.0668006,9.362516,1.5948163,45.2625,-58.818752,-14.3625,0,
2022-04-15 10:17:24.098,0.05697815,0.110126644,0.06934993,40.4328755,-86.9104686,13.106803,0.059664965,0.074341774,0.10534322,-2.0668006,9.362516,1.5948163,45.15,-58.912502,-14.043751,0,
2022-04-15 10:17:24.298,-0.052439082,0.050865065,-0.061360046,40.4328755,-86.9104686,13.106803,-0.07210469,-0.03534317,0.051516414,-3.2973096,8.977871,2.0482562,45.15,-58.65,-13.9875,0,
2022-04-15 10:17:24.497,-0.03407786,0.056773186,-0.01211507,40.4328755,-86.9104686,13.106803,-0.02436614,-0.016013145,0.060672402,-2.6949165,9.332008,1.8203398,45.300003,-58.443752,-14.00625,0,
2022-04-15 10:17:24.697,-0.022569327,0.03386496,0.1960259,40.4329945,-86.9104849,12.894053,0.18494987,-0.021374702,0.073614,-2.8091738,9.202198,1.7599211,45.487503,-58.237503,-14.025001,0,
2022-04-15 10:17:24.897,-0.061455313,0.05759675,-0.06524067,40.4329945,-86.9104849,12.894053,-0.080337524,-0.03314686,0.061625123,-2.7003005,9.071789,1.5002998,45.693752,-58.0875,-14.19375,0,
2022-04-15 10:17:25.097,-0.03693382,-0.051985804,-0.086389735,40.4329945,-86.9104849,12.894053,-0.084882736,-0.039830208,-0.052328706,-2.7003005,9.071789,1.5002998,45.581253,-58.256252,-14.400001,0,
2022-04-15 10:17:25.297,-0.024307735,0.026311433,0.019892935,40.4329945,-86.9104849,12.894053,0.012748003,-0.01906395,0.033954978,-1.8705891,9.211769,1.8987048,45.28125,-58.518753,-14.625001,0,
2022-04-15 10:17:25.497,-0.053370737,0.034677245,0.08071782,40.4329945,-86.9104849,12.894053,0.06674123,-0.04789257,0.061791778,-2.7332017,9.245269,1.7174485,45.037502,-58.818752,-14.887501,0,
2022-04-15 10:17:25.698,0.01933033,-0.058409225,-0.12218192,40.4331124,-86.9104856,12.645121,-0.109237194,0.02449894,-0.07861781,-1.7042879,8.95813,1.3824533,44.7,-59.081253,-15.0375,0,
2022-04-15 10:17:25.897,-0.010170646,-0.19510461,-0.087126896,40.4331124,-86.9104856,12.645121,-0.07271743,-0.048653603,-0.19520593,-2.594418,9.270393,1.3106686,44.325,-59.362503,-14.981251,0,
2022-04-15 10:17:26.097,0.067767866,-0.068097234,0.02876085,40.4331124,-86.9104856,12.645121,0.048538923,0.037802696,-0.0791949,-2.594418,9.270393,1.3106686,44.006252,-59.60625,-14.962501,0,
2022-04-15 10:17:26.297,0.046016604,-0.11656398,-0.002557844,40.4331124,-86.9104856,12.645121,0.023662567,0.0042390823,-0.12301767,-3.2309089,8.935996,2.0374885,43.706253,-59.756252,-14.700001,0,
2022-04-15 10:17:26.496,0.057760794,-0.0045807958,-0.06263654,40.4331124,-86.9104856,12.645121,-0.043133497,0.06881046,-0.026177287,-2.6889346,9.506086,0.9738788,43.5,-59.812504,-14.175,0,
2022-04-15 10:17:26.697,0.048826054,-0.12691838,0.017517341,40.4332257,-86.9104852,12.346674,0.03952074,0.006590843,-0.13112509,-2.7912276,9.302696,1.5541383,43.612503,-59.4,-13.481251,0,
2022-04-15 10:17:26.896,-0.019721694,-0.06561805,-0.066941164,40.4332257,-86.9104852,12.346674,-0.06276345,-0.029725075,-0.06597698,-2.8061829,9.538389,1.3686945,44.006252,-58.687504,-12.76875,0,
2022-04-15 10:17:27.095,0.05762581,0.12743586,-0.0029185172,40.4332257,-86.9104852,12.346674,-0.007176399,0.092606544,0.104602456,-2.8061829,9.538389,1.3686945,44.5875,-57.693752,-12.31875,0,
2022-04-15 10:17:27.295,0.055797905,-0.068417534,0.17047355,40.4332257,-86.9104852,12.346674,0.18283868,0.028513908,-0.051113367,-2.548356,9.220742,1.6253247,45.131252,-56.756252,-12.450001,0,
2022-04-15 10:17:27.495,-0.07357452,-0.109780595,-0.10512781,40.4332257,-86.9104852,12.346674,-0.10783887,-0.08578777,-0.097611904,-2.5423741,8.692527,1.1826526,45.45,-56.437504,-13.125001,0,
2022-04-15 10:17:27.695,-0.076566935,0.0122490935,0.2666114,40.433338,-86.9104843,12.320625,0.23740005,-0.13152885,0.05861342,-2.720041,9.509077,0.9667004,45.581253,-56.437504,-13.6125,0,
2022-04-15 10:17:27.895,-0.03009521,0.095542476,-0.21289642,40.433338,-86.9104843,12.320625,-0.22094893,0.03516674,0.07282746,-2.2319052,9.427123,1.2065809,45.600002,-56.812504,-14.26875,0,
2022-04-15 10:17:28.095,0.073878534,0.06663385,-0.118579045,40.433338,-86.9104843,12.320625,-0.103441715,0.11037731,0.032798767,-2.2319052,9.427123,1.2065809,45.3375,-57.562504,-14.681251,0,
2022-04-15 10:17:28.294,-0.07546146,-0.112575606,0.07398672,40.433338,-86.9104843,12.320625,0.082811356,-0.10837269,-0.07238352,-2.6703901,9.406784,1.8526429,44.943752,-58.218754,-14.56875,0,
2022-04-15 10:17:28.495,0.013779096,0.124670744,-0.072475575,40.433338,-86.9104843,12.320625,-0.08465266,0.055247307,0.103764296,-2.5722845,9.5665045,1.6002002,44.79375,-58.443752,-14.118751,0,
2022-04-15 10:17:28.694,0.11243157,0.012114573,-0.08556231,40.4334418,-86.9104897,12.084688,-0.06810212,0.12243366,-0.021923304,-1.8155541,9.061021,1.2879368,44.86875,-58.218754,-13.462501,0,
2022-04-15 10:17:28.894,-0.10190937,-0.13945398,0.07413545,40.4334418,-86.9104897,12.084688,0.08559632,-0.13380146,-0.100495934,-2.088336,9.628718,1.6905292,45.300003,-57.881252,-13.05,0,
2022-04-15 10:17:29.094,0.009928912,0.13840675,-0.13922222,40.4334418,-86.9104897,12.084688,-0.15785718,0.04605007,0.10769558,-2.088336,9.628718,1.6905292,45.91875,-57.45,-12.76875,0,
2022-04-15 10:17:29.295,0.06914604,0.05051074,0.02314987,40.4334418,-86.9104897,12.084688,0.01409483,0.08004856,0.035524487,-2.4562325,9.465408,2.000998,46.5,-57.16875,-12.825001,0,
2022-04-15 10:17:29.493,-0.051347107,-0.16629112,-0.008003379,40.4334418,-86.9104897,12.084688,-0.014846802,-0.09988117,-0.14197409,-3.2470603,9.872188,1.1042876,47.025,-56.86875,-13.275001,0,
2022-04-15 10:17:29.695,-0.11246891,0.13530274,0.10621686,40.4335464,-86.9104935,11.9530735,0.071303606,-0.05533886,0.18463886,-3.9804604,9.232706,1.7706888,47.4,-56.98125,-14.156251,0,
2022-04-15 10:17:29.893,-0.030683715,0.15148081,0.017231693,40.4335464,-86.9104935,11.9530735,-0.01527667,0.015400887,0.15399444,-2.7343981,8.886943,1.9974087,47.456253,-57.525,-15.150001,0,
2022-04-15 10:17:30.093,-0.08593242,-0.07431188,-0.0923833,40.4335464,-86.9104935,11.9530735,-0.084717035,-0.10075092,-0.06413722,-2.7343981,8.886943,1.9974087,47.04375,-58.36875,-16.06875,0,
2022-04-15 10:17:30.293,-0.15309703,0.19292016,-0.11403917,40.4335464,-86.9104935,11.9530735,-0.16475415,-0.061543465,0.20671308,-4.126423,9.519247,2.3575284,46.40625,-59.4,-16.837502,0,
2022-04-15 10:17:30.493,0.07440382,0.48494625,-0.07709437,40.4335464,-86.9104935,11.9530735,-0.08705711,0.24887943,0.42087102,-3.1046875,9.485747,1.5397813,45.600002,-60.3375,-17.025002,0,
2022-04-15 10:17:30.692,-0.0670894,0.029851787,0.0077590286,40.4336519,-86.9104966,11.395539,-0.0037961006,-0.055880547,0.04811728,-2.4975085,8.479566,2.0374885,44.943752,-60.7125,-16.66875,0,
2022-04-15 10:17:30.893,-0.3348126,-0.018355794,-0.098334245,40.4336519,-86.9104966,11.395539,-0.056900263,-0.33265972,0.090586424,-4.2239304,9.37807,2.8091738,44.5125,-60.750004,-16.575,0,
2022-04-15 10:17:31.093,-0.13506481,0.2786142,-0.01617203,40.4336519,-86.9104966,11.395539,-0.09263253,-0.03054142,0.29430652,-4.2239304,9.37807,2.8091738,44.100002,-61.0125,-16.48125,0,
2022-04-15 10:17:31.292,-0.03483522,0.33289662,0.05984594,40.4336519,-86.9104966,11.395539,-0.016543388,0.08251095,0.32944417,-3.3690944,9.095717,2.2229323,43.78125,-60.91875,-15.975,0,
2022-04-15 10:17:31.492,-0.2091795,-0.04578404,0.028071124,40.4336519,-86.9104966,11.395539,0.09254193,-0.19103336,0.03978038,-3.3463624,8.653045,2.99043,43.7625,-60.562504,-15.50625,0,
2022-04-15 10:17:31.692,-0.12071553,0.18698226,-0.149921,40.4337488,-86.9104957,10.420131,-0.18892074,-0.07729626,0.17419863,-3.6717863,9.298509,2.562115,43.93125,-60.300003,-15.13125,0,
2022-04-15 10:17:31.893,0.063320145,0.07907729,-0.0180161,40.4337488,-86.9104957,10.420131,-0.05906391,0.071538925,0.044507027,-3.3290145,8.986245,2.9629126,44.175003,-59.812504,-14.6625,0,
2022-04-15 10:17:32.092,-0.09381491,0.1612296,-0.02116758,40.4337488,-86.9104957,10.420131,-0.06021309,-0.054291725,0.16932535,-3.3290145,8.986245,2.9629126,44.5125,-59.268753,-14.418751,0,
2022-04-15 10:17:32.293,-0.07164371,0.09775949,-0.027237944,40.4337488,-86.9104957,10.420131,-0.04864335,-0.042248726,0.106209755,-3.6646078,9.123833,2.6638098,44.71875,-59.081253,-14.64375,0,
2022-04-15 10:17:32.491,-0.028384784,-0.0011847485,0.00330068,40.4337488,-86.9104957,10.420131,0.0073432922,-0.026625633,0.0074260235,-2.6075785,8.997013,2.8037899,44.850002,-58.968754,-14.325001,0,
2022-04-15 10:17:32.691,-0.038486764,0.11312041,0.02407793,40.4338358,-86.9104955,8.922115,-0.008802652,-0.0075998306,0.121334076,-2.5896323,8.983254,2.7152555,45.24375,-58.4625,-14.043751,0,
2022-04-15 10:17:32.891,0.03447344,-6.7486987E-4,-0.029320046,40.4338358,-86.9104955,8.922115,-0.034015417,0.020104408,-0.022074938,-3.4749768,8.50469,2.993421,45.675003,-58.0875,-14.231251,0,
2022-04-15 10:17:33.091,-0.0189278,0.003698703,0.002610312,40.4338358,-86.9104955,8.922115,0.00511837,-0.015309334,0.010871172,-3.4749768,8.50469,2.993421,45.787502,-58.10625,-14.793751,0,
2022-04-15 10:17:33.294,0.03240236,-0.04428231,-0.006706373,40.4338358,-86.9104955,8.922115,0.0047097206,0.015665054,-0.052803755,-3.31047,8.900104,2.4466612,45.693752,-58.331253,-15.187501,0,
2022-04-15 10:17:33.491,-0.048396476,0.061933264,-0.014384236,40.4338358,-86.9104955,8.922115,-0.029195786,-0.027353287,0.06916833,-3.6574295,9.3104725,2.6422744,45.5625,-58.537502,-15.31875,0,
2022-04-15 10:17:33.69,0.024081059,-0.016296908,-0.004652771,40.4339067,-86.9104981,7.6643386,-4.7922134E-5,0.018647194,-0.02279067,-2.5824537,8.973084,2.2438695,45.3375,-58.7625,-15.468751,0,
2022-04-15 10:17:33.89,-0.04021255,0.020576803,-0.053158145,40.4339067,-86.9104981,7.6643386,-0.054590225,-0.040571213,0.015496016,-2.5968108,9.090333,2.6231318,45.131252,-58.8375,-15.375001,0,
2022-04-15 10:17:34.09,-0.01927738,-0.01534667,0.022381678,40.4339067,-86.9104981,7.6643386,0.026939154,-0.019301414,-0.0031328201,-2.5968108,9.090333,2.6231318,44.98125,-58.875004,-15.31875,0,
2022-04-15 10:17:34.29,-0.09483877,0.049566552,-0.001544172,40.4339067,-86.9104981,7.6643386,-0.009387732,-0.07437706,0.07637763,-3.4893336,9.396614,2.6835506,44.8125,-58.85625,-15.056251,0,
2022-04-15 10:17:34.49,-0.04879143,0.30883056,-0.062251896,40.4339067,-86.9104981,7.6643386,-0.17523742,-0.012228966,0.26603484,-3.4157543,8.606385,3.3266218,44.737503,-58.631252,-14.718751,0,
2022-04-15 10:17:34.69,-0.15052131,0.21341148,-0.038711064,40.4339669,-86.9104981,6.1612935,-0.08516312,-0.09580231,0.23080039,-3.5216367,9.081959,2.9976087,44.8875,-58.29375,-14.306251,0,
2022-04-15 10:17:34.89,-0.10520333,0.24129449,0.044941537,40.4339669,-86.9104981,6.1612935,-0.03725052,-0.045360565,0.26050973,-2.894119,8.809774,3.6131623,45.131252,-57.975002,-14.1,0,
2022-04-15 10:17:35.09,-0.1131091,0.18253523,-0.03567905,40.4339669,-86.9104981,6.1612935,-0.07589054,-0.08418751,0.18584633,-3.6311083,8.895318,3.591627,45.35625,-57.825,-14.212501,0,
2022-04-15 10:17:35.289,-0.11685128,0.24744536,-0.03550438,40.4339669,-86.9104981,6.1612935,-0.102864504,-0.055247307,0.25002122,-3.4612179,8.9826565,2.9970105,45.7125,-57.693752,-14.26875,0,
2022-04-15 10:17:35.489,-0.03150764,0.073208034,-0.033860743,40.4339669,-86.9104981,6.1612935,-0.050902605,-0.034705162,0.06085372,-3.431906,8.558528,3.784249,46.0125,-57.600002,-14.3625,0,
2022-04-15 10:17:35.689,-0.031238675,0.1022798,0.050297465,40.4339669,-86.9104981,6.1612935,0.004304886,0.016911507,0.1168859,-3.7974095,8.562118,3.3379877,46.18125,-57.506252,-14.7375,0,
2022-04-15 10:17:35.89,-0.014049726,-0.060890574,-0.098342486,40.4340107,-86.9105002,3.923015,-0.05446577,-0.062098503,-0.08218002,-3.3427732,8.4502535,3.3343983,45.956253,-58.912502,-16.63125,0,
2022-04-15 10:17:36.089,0.046451382,-0.008508209,-0.016149493,40.4340107,-86.9105002,3.923015,-0.02316308,0.032413483,-0.030062675,-3.656233,8.550752,3.4301112,45.881252,-59.343754,-16.66875,0,
2022-04-15 10:17:36.288,-0.00847548,-0.0046409555,0.06259563,40.4340107,-86.9105002,3.923015,0.056034803,0.02031517,0.021423817,-3.7064822,8.577073,3.5557344,45.862503,-59.006252,-16.35,0,
2022-04-15 10:17:36.489,-0.01383456,0.07590294,-0.060470216,40.4340107,-86.9105002,3.923015,-0.08103156,-0.016133308,0.05275321,-3.324827,8.834301,3.1645079,44.86875,-60.15,-15.806251,0,
2022-04-15 10:17:36.688,0.07698682,-0.111675,0.021161197,40.434036,-86.9104974,1.8507613,0.049026012,0.041820526,-0.12121701,-3.0592237,8.82473,2.4251258,45.24375,-59.925003,-15.900001,0,
2022-04-15 10:17:36.889,0.20464125,-0.37923512,0.06082569,40.434036,-86.9104974,1.8507613,0.15629005,0.096440315,-0.39455009,-3.1920254,8.756535,2.589034,45.581253,-59.250004,-14.906251,0,
2022-04-15 10:17:37.088,0.260441,-0.5197143,0.044339195,40.434036,-86.9104974,1.8507613,0.17968869,0.112234116,-0.54315186,-3.1250265,8.8701935,2.6464617,44.90625,-59.906254,-15.20625,0,
2022-04-15 10:17:37.288,0.30465066,-0.43874735,0.061226144,40.434036,-86.9104974,1.8507613,0.16295433,0.16768551,-0.48413563,-3.4085758,8.9312105,2.6081767,44.9625,-59.5125,-14.7375,0,
2022-04-15 10:17:37.488,0.19951516,-0.34892026,0.033387378,40.434036,-86.9104974,1.8507613,0.122255325,0.09072018,-0.37348342,-3.298506,8.95155,2.6129622,44.30625,-59.9625,-15.543751,0,
2022-04-15 10:17:37.687,0.14948054,-0.23020603,0.01456546,40.4340466,-86.910496,0.6040373,0.06752348,0.07733154,-0.25497413,-3.3487554,8.953942,2.5746772,44.737503,-60.581253,-14.343751,0,
2022-04-15 10:17:37.888,0.10133742,-0.16493194,0.039918557,40.4340466,-86.910496,0.6040373,0.07729888,0.049801826,-0.17495704,-3.1669009,9.036494,2.2576282,45.487503,-59.812504,-14.250001,0,
2022-04-15 10:17:38.087,0.12284638,-0.16772507,0.025531195,40.4340466,-86.910496,0.6040373,0.062152386,0.05752659,-0.1915791,-2.7326035,9.391829,1.038485,44.9625,-59.718754,-14.212501,0,
2022-04-15 10:17:38.287,0.74390185,-0.93941283,0.11678283,40.4340466,-86.910496,0.6040373,0.3451233,0.41293526,-1.0769861,-2.6416762,9.059227,1.5337993,44.4,-59.86875,-14.512501,0,
2022-04-15 10:17:38.487,0.5748701,-1.0707679,0.2708982,40.4340466,-86.910496,0.6040373,0.45804667,0.14661503,-1.148522,-2.766103,9.430114,1.1796615,44.100002,-60.15,-14.606251,0,
2022-04-15 10:17:38.687,0.68252134,-0.84808517,0.12083175,40.4340494,-86.9104958,0.59908336,0.31857252,0.3479643,-0.988492,-2.800799,9.3200445,1.1078769,44.60625,-59.49375,-13.762501,0,
2022-04-15 10:17:38.887,0.79347414,-1.1396247,0.20019668,40.4340494,-86.9104958,0.59908336,0.4355886,0.35659695,-1.2851169,-2.7445676,9.370294,1.125823,44.568752,-59.568752,-13.743751,0,
2022-04-15 10:17:39.087,0.5004929,-0.7303356,0.14636557,40.4340494,-86.9104958,0.59908336,0.29587293,0.21827602,-0.8186091,-2.7649066,9.38465,1.1724831,44.30625,-59.081253,-13.668751,0,
2022-04-15 10:17:39.287,0.3400696,-0.4803649,0.073503785,40.4340494,-86.9104958,0.59908336,0.17367387,0.15795135,-0.5446919,-2.725425,9.363115,1.0875379,44.475002,-59.49375,-13.668751,0,
2022-04-15 10:17:39.486,0.22636554,-0.32096916,0.059054267,40.4340494,-86.9104958,0.59908336,0.12698627,0.104159355,-0.36162865,-2.7397819,9.504292,1.1676974,44.60625,-59.325,-13.931251,0,
2022-04-15 10:17:39.686,0.13666756,-0.20029755,0.015721561,40.434053,-86.9104941,0.4112508,0.05638337,0.06900501,-0.22606087,-2.489732,9.285348,0.98584294,44.71875,-59.5125,-13.687501,0,
2022-04-15 10:17:39.887,0.06728441,-0.084598176,0.027596422,40.434053,-86.9104941,0.4112508,0.044397116,0.030173302,-0.09779608,-2.5328028,9.91825,0.28953153,44.60625,-58.85625,-13.125001,0,
2022-04-15 10:17:40.086,0.26616478,-0.3175366,0.05347338,40.434053,-86.9104941,0.4112508,0.11460352,0.15301037,-0.3714652,-2.1595225,9.745967,-1.4249259,44.381252,-58.968754,-13.293751,0,
2022-04-15 10:17:40.286,0.78492045,-1.267237,0.3640344,40.434053,-86.9104941,0.4112508,0.4671402,0.3284769,-1.4242169,-1.9250258,9.692128,-0.94636136,44.625,-58.0125,-13.481251,0,
2022-04-15 10:17:40.485,0.8687531,-1.6381872,0.4405842,40.434053,-86.9104941,0.4112508,0.51129127,0.22157669,-1.8226323,-2.4586253,9.885947,-0.6125626,44.98125,-56.812504,-13.368751,0,
2022-04-15 10:17:40.685,0.8031721,-1.3559101,0.25311822,40.4340629,-86.9104969,1.8145139,0.3131256,0.29883575,-1.5363255,-2.585445,9.570094,-1.0133604,45.24375,-56.906254,-12.243751,0,
2022-04-15 10:17:40.888,0.74567735,-1.2425781,-0.03382899,40.4340629,-86.9104969,1.8145139,0.08205867,0.427207,-1.3827293,-2.516053,9.5557375,-0.89730847,45.35625,-56.7,-12.712501,0,
2022-04-15 10:17:41.085,0.31665042,-0.9347216,-0.0073275715,40.4340629,-86.9104969,1.8145139,-0.033321857,0.03263855,-0.9858245,-3.1405797,9.652647,-0.38883367,46.068752,-55.93125,-12.4875,0,
2022-04-15 10:17:41.285,0.21107933,-0.34450513,-0.07087587,40.4340629,-86.9104969,1.8145139,-0.032702684,0.13132,-0.38723022,-3.150151,9.475577,-0.73579293,47.25,-54.581253,-13.35,0,
2022-04-15 10:17:41.485,-0.13429342,-0.5083389,-0.26237243,40.4340629,-86.9104969,1.8145139,-0.41452098,-0.117985725,-0.3994174,-4.4805603,9.144172,0.078963146,48.318752,-54.656254,-15.187501,0,
2022-04-15 10:17:41.685,-0.6592325,-0.25835446,-0.93295515,40.4340629,-86.9104969,1.8145139,-1.1489484,-0.22331142,-0.04229772,-3.5162528,9.499506,0.31345975,48.975002,-55.312504,-15.3,0,
2022-04-15 10:17:41.885,-0.78164864,-0.14216457,-0.8785017,40.4340895,-86.9105074,3.595135,-1.1381624,-0.29649258,0.14010337,-4.249653,9.507881,0.57906306,48.768753,-57.018753,-14.56875,0,
2022-04-15 10:17:42.084,-0.6310854,0.391053,-0.15350656,40.4340948,-86.9105102,3.5948484,-0.3503623,-0.2305975,0.6315271,-4.5355954,8.9013,0.21296121,49.631252,-56.550003,-13.687501,0,
2022-04-15 10:17:42.284,-1.0173662,0.16566327,-1.0322348,40.4340948,-86.9105102,3.5948484,-1.3143566,-0.45048618,0.44442743,-2.774478,9.15494,0.0849452,49.518753,-57.54375,-13.556251,0,
2022-04-15 10:17:42.484,-1.1252677,-0.22846258,-1.1050893,40.4340948,-86.9105102,3.5948484,-1.5052547,-0.49132538,0.18014678,-3.0185459,8.483752,-0.148355,49.706253,-57.487503,-13.368751,0,
2022-04-15 10:17:42.683,-0.84598315,0.028015494,-0.75206584,40.4341265,-86.9105312,4.5888987,-0.85261893,-0.68069553,0.30293542,-4.5212383,8.565108,1.4596218,51.7125,-56.287502,-12.431251,0,
2022-04-15 10:17:42.884,-1.1172714,-0.15470055,-1.6467427,40.4341265,-86.9105312,4.5888987,-1.9534307,-0.2728796,0.30599806,-4.5487556,8.297112,0.5455636,51.54375,-57.018753,-12.375001,0,
2022-04-15 10:17:43.083,-1.3253858,0.17678958,-2.6883054,40.4341265,-86.9105312,4.5888987,-2.9305344,-0.44663048,0.47683972,-3.3990045,8.348558,0.6221339,51.318752,-56.812504,-11.681251,0,
2022-04-15 10:17:43.284,-1.2482411,0.004252404,-0.7040141,40.4341265,-86.9105312,4.5888987,-0.6718509,-1.1275187,0.5753935,-5.7726846,8.780462,1.6007984,52.65,-56.325,-10.012501,0,
2022-04-15 10:17:43.484,-1.0630502,0.39589536,-1.8074428,40.4341265,-86.9105312,4.5888987,-1.918853,-0.75080204,0.5549389,-3.6203406,9.360723,1.0803595,52.275,-56.8875,-9.20625,0,
2022-04-15 10:17:43.683,-0.8194468,0.69948995,-2.2830713,40.4341265,-86.9105312,4.5888987,-2.3965092,-0.3673916,0.70353484,-4.080959,8.512466,1.1425728,52.987503,-56.49375,-9.618751,0,
2022-04-15 10:17:43.883,-1.3717642,0.32725054,-1.0884393,40.4341629,-86.9105689,5.0658326,-1.2613583,-0.9973831,0.76663715,-4.010969,8.576474,0.93260264,53.250004,-56.2125,-9.39375,0,
2022-04-15 10:17:44.082,-0.99148464,0.18932426,-2.0334356,40.4341629,-86.9105689,5.0658326,-2.0406628,-0.9552202,0.27747947,-3.8901315,8.534002,1.3974084,53.23125,-56.250004,-9.3,0,
2022-04-15 10:17:44.283,-0.41731745,0.70605737,-1.4817498,40.4341629,-86.9105689,5.0658326,-1.5698311,-0.40761852,0.48757637,-2.7176483,9.183653,1.9268204,53.362503,-56.268753,-9.1875,0,
2022-04-15 10:17:44.482,-0.7101935,0.9125927,-1.6932578,40.4341629,-86.9105689,5.0658326,-1.8158059,-0.14322758,0.94162446,-5.3383875,8.787043,1.2173486,53.79375,-56.081253,-8.887501,0,
2022-04-15 10:17:44.682,-0.8717284,0.12770054,-2.2122567,40.4341629,-86.9105689,5.0658326,-2.318562,-0.42789078,0.33388156,-3.8153558,8.508878,0.5844469,54.300003,-55.875004,-8.306251,0,
2022-04-15 10:17:44.883,-0.79839647,-0.36743268,-1.9162061,40.4341893,-86.9106216,5.2886825,-1.9921675,-0.6775389,-0.12845337,-3.8153558,8.508878,0.5844469,54.581253,-55.95,-7.3875003,0,
2022-04-15 10:17:45.082,-0.14443551,-0.1274448,-1.0385039,40.4341893,-86.9106216,5.2886825,-1.0487256,-0.067650795,-0.10579258,-4.241876,9.640084,0.48095736,55.10625,-56.062504,-6.4687505,0,
2022-04-15 10:17:45.282,-0.33277953,0.25645423,-1.3404284,40.4341893,-86.9106216,5.2886825,-1.3640463,-0.03534603,0.3337476,-4.0905304,9.19801,0.26799613,55.706253,-56.381252,-5.3812504,0,
2022-04-15 10:17:45.482,-0.26914817,-0.0021244287,-1.3232064,40.4341893,-86.9106216,5.2886825,-1.2911656,-0.38467407,-0.09076351,-2.3162522,9.28116,1.11685,56.11875,-56.5875,-4.125,0,
2022-04-15 10:17:45.682,-0.18440866,0.12416172,-0.04811706,40.4342009,-86.9106888,6.0861683,-0.0629704,-0.098716736,0.19500685,-4.6576295,9.259625,-0.27816564,56.5875,-56.718754,-2.8500001,0,
2022-04-15 10:17:45.884,-0.11537817,-0.31458157,-1.3570726,40.4342009,-86.9106888,6.0861683,-1.3809836,-0.07038498,-0.20457187,-3.9984066,8.823533,-0.24466611,56.943752,-56.850002,-1.5187501,0,
2022-04-15 10:17:46.081,-0.24659644,-0.48111886,-1.2045809,40.4342009,-86.9106888,6.0861683,-1.1583126,-0.48889637,-0.40322796,-3.4689946,8.9928255,0.3469593,57.075,-57.018753,-0.26250002,0,
2022-04-15 10:17:46.281,0.09594294,-0.5097497,-0.8349282,40.4342009,-86.9106888,6.0861683,-0.8312793,-0.12497997,-0.5094209,-3.6885362,9.28834,0.0029910284,57.093754,-57.2625,0.975,0,
2022-04-15 10:17:46.481,-0.16396534,-0.3084816,-0.71183866,40.4342009,-86.9106888,6.0861683,-0.6886666,-0.29385757,-0.26104766,-2.6656044,9.3409815,0.12861422,57.000004,-57.3375,1.95,0,
2022-04-15 10:17:46.68,0.033732332,-0.24324773,-0.407725,40.434203,-86.9107699,7.136468,-0.3971908,-0.07861996,-0.25021067,-2.7906294,9.552148,0.17826529,56.79375,-57.3375,2.8500001,0,
2022-04-15 10:17:46.881,0.0076952875,-0.27404845,-0.13976511,40.434203,-86.9107699,7.136468,-0.15032554,-0.06550789,-0.26039782,-2.4933212,9.324232,-0.42053857,56.531254,-57.375004,3.61875,0,
2022-04-15 10:17:47.081,0.018951792,-0.19742166,-0.18352549,40.434203,-86.9107699,7.136468,-0.18056345,-0.056059837,-0.19305497,-2.8528428,9.555139,-0.08315059,56.268753,-57.487503,4.2375,0,
2022-04-15 10:17:47.28,0.07446582,-0.08479078,-0.021304712,40.434203,-86.9107699,7.136468,-0.026763678,0.05874729,-0.094978884,-1.3256238,9.459426,0.3272185,56.081253,-57.656254,4.6687503,0,
2022-04-15 10:17:47.48,-0.024031177,0.090378664,0.14807962,40.434203,-86.9107699,7.136468,0.15016198,0.0039110184,0.090052545,-1.6749759,9.645468,-0.20398813,55.912502,-57.7125,5.0437503,0,
2022-04-15 10:17:47.68,-0.028825901,-0.08835664,0.07235711,40.434196,-86.9108624,8.354353,0.07122612,-0.03862095,-0.0854906,-1.5553347,9.542577,-0.4001996,55.85625,-57.750004,5.3812504,0,
2022-04-15 10:17:47.88,-0.039809313,-0.04987011,0.06765334,40.434196,-86.9108624,8.354353,0.08408308,-0.02849102,-0.027696222,-3.6885362,10.079765,0.85184485,55.912502,-57.61875,5.5875,0,
2022-04-15 10:17:48.079,0.037419215,0.31668028,-0.106033005,40.434196,-86.9108624,8.354353,-0.1604681,0.06001854,0.2890975,-2.1882362,10.125229,1.0731809,55.93125,-57.600002,5.71875,0,
2022-04-15 10:17:48.279,4.425943E-4,0.135057,0.079715,40.434196,-86.9108624,8.354353,0.08023071,0.027524948,0.13191089,-1.4075779,9.634701,-0.19980069,55.95,-57.468754,5.71875,0,
2022-04-15 10:17:48.479,-0.02732282,-0.052460033,-0.03454133,40.434196,-86.9108624,8.354353,-0.026036024,-0.04174137,-0.047660023,-1.7964116,9.54796,0.33320054,55.95,-57.393753,5.5875,0,
2022-04-15 10:17:48.679,-0.004028838,0.1307881,-0.20524368,40.434196,-86.9108624,8.354353,-0.21670365,-0.03279209,0.10588169,-4.0121655,9.293125,0.7639086,55.987503,-57.300003,5.5687504,0,
2022-04-15 10:17:48.879,-0.1519537,0.09808826,0.20258765,40.4341924,-86.9109708,9.525355,0.21525836,-0.10534859,0.1277439,-2.6153553,8.568698,-0.45403808,55.912502,-57.15,5.5687504,0,
2022-04-15 10:17:49.079,0.02772965,0.10210545,-0.20168366,40.4341924,-86.9109708,9.525355,-0.1942842,-0.11519337,0.029238641,-5.346762,8.668598,2.1445673,55.912502,-57.018753,5.6062503,0,
2022-04-15 10:17:49.279,0.19624114,0.1862787,-0.084795475,40.4341924,-86.9109708,9.525355,-0.14761806,0.21804523,0.10519409,-3.3523445,9.300303,0.39840496,55.85625,-56.943752,5.5687504,0,
2022-04-15 10:17:49.48,-0.09424831,-0.13919526,0.0033393286,40.4341924,-86.9109708,9.525355,0.030776262,-0.13140869,-0.10026863,-3.374478,9.661021,0.15613168,55.818752,-56.86875,5.5687504,0,
2022-04-15 10:17:49.678,-0.050001055,0.064137906,4.5263022E-4,40.4341924,-86.9109708,9.525355,0.0031473637,-0.025143623,0.0772779,-3.4540396,9.4636135,0.613759,55.8375,-56.737503,5.5687504,0,
2022-04-15 10:17:49.878,0.04396756,0.13195193,-0.041242477,40.4341961,-86.9110956,10.401126,-0.075596094,0.061944008,0.10720807,-3.1106694,9.407382,0.91585284,55.800003,-56.756252,5.55,0,
2022-04-15 10:17:50.078,-0.082631774,0.025806414,-0.022748439,40.4341961,-86.9110956,10.401126,-0.003408432,-0.07605648,0.04706663,-2.9138598,9.303294,0.8847462,55.7625,-56.662502,5.625,0,
2022-04-15 10:17:50.278,-0.017323222,0.106769904,0.017030198,40.4341961,-86.9110956,10.401126,0.00813055,0.008312225,0.10887945,-2.0955145,9.448658,0.6430711,55.7625,-56.550003,5.5875,0,
2022-04-15 10:17:50.479,-0.0785062,0.021661598,0.119571105,40.4341961,-86.9110956,10.401126,0.12671399,-0.059843063,0.035945356,-2.2552354,9.870992,-0.22432712,55.706253,-56.49375,5.5125003,0,
2022-04-15 10:17:50.678,0.031026108,0.10284415,-0.081070185,40.4341961,-86.9110956,10.401126,-0.10360885,0.034996986,0.07843679,-3.866203,9.844072,0.7501499,55.687504,-56.362503,5.4750004,0,
2022-04-15 10:17:50.878,0.09658332,0.10512012,-0.12962806,40.4341952,-86.9112282,11.135259,-0.16385627,0.0799284,0.06280595,-2.8636105,9.643674,0.79740816,55.66875,-56.287502,5.3625,0,
2022-04-15 10:17:51.079,-0.045904487,-0.09460652,0.063619845,40.4341952,-86.9112282,11.135259,0.083701134,-0.047358513,-0.07652706,-2.306681,9.806984,0.76570326,55.631252,-56.2125,5.2875004,0,
2022-04-15 10:17:51.277,-0.0744635,0.060209364,0.051074192,40.4341952,-86.9112282,11.135259,0.057909727,-0.04329586,0.08093506,-2.4711876,9.61496,0.85184485,55.537502,-56.2125,5.15625,0,
2022-04-15 10:17:51.477,-0.0051625296,-6.0344674E-4,0.06937311,40.4341952,-86.9112282,11.135259,0.066021204,0.0187397,0.011387229,-1.9567307,8.949755,1.4548361,55.4625,-56.062504,5.11875,0,
2022-04-15 10:17:51.677,-0.06414268,0.052635886,-0.00248467,40.4341952,-86.9112282,11.135259,0.0045666695,-0.049928665,0.06616092,-2.4275186,9.809975,0.715454,55.443752,-55.968754,4.89375,0,
2022-04-15 10:17:51.877,-0.03340014,-0.05359675,0.03463491,40.4341934,-86.9113683,11.816005,0.047342062,-0.034345627,-0.04203409,-2.0919251,9.234501,0.74596244,55.36875,-55.968754,4.7250004,0,
2022-04-15 10:17:52.078,0.1566862,0.12199552,-0.042412598,40.4341934,-86.9113683,11.816005,-0.0846293,0.16718388,0.07822877,-2.2983062,9.32124,0.5808577,55.331253,-55.93125,4.6875,0,
2022-04-15 10:17:52.277,0.017556544,-0.16234736,-0.0030284747,40.4341934,-86.9113683,11.816005,0.020781755,-0.015465736,-0.16125447,-2.3282163,9.710672,1.1467602,55.256252,-55.968754,4.5375004,0,
2022-04-15 10:17:52.48,-0.13199252,0.2399253,0.08616627,40.4341934,-86.9113683,11.816005,0.065428495,-0.0496912,0.2750649,-2.3312075,9.259625,1.5026926,55.18125,-55.95,4.3875003,0,
2022-04-15 10:17:52.677,-0.12906906,0.111647055,0.027835801,40.4341934,-86.9113683,11.816005,0.03943658,-0.08561516,0.1449604,-2.5525436,9.102896,1.5158532,55.143753,-55.987503,4.2937503,0,
2022-04-15 10:17:52.877,-0.09976746,0.018406678,-0.06294837,40.4341921,-86.9115148,12.427598,-0.03448558,-0.10652447,0.04145038,-3.3140593,9.964312,1.2059826,55.10625,-55.95,4.275,0,
2022-04-15 10:17:53.077,0.15992397,0.37189677,-0.17817004,40.4341921,-86.9115148,12.427598,-0.3130846,0.17195225,0.26084077,-3.9367914,9.973285,1.4446666,55.162502,-55.93125,4.2375,0,
2022-04-15 10:17:53.276,-0.037468668,-0.06378927,0.052629843,40.4341921,-86.9115148,12.427598,0.07162905,-0.031119347,-0.04630053,-2.2636101,9.568898,1.2646067,55.143753,-55.95,4.275,0,
2022-04-15 10:17:53.476,-0.11104449,0.019278575,0.17063288,40.4341921,-86.9115148,12.427598,0.187186,-0.04097271,0.0714196,-2.8390841,9.237492,1.183849,55.125004,-55.968754,4.2375,0,
2022-04-15 10:17:53.676,-0.07386389,-0.017561436,-0.05623606,40.4341927,-86.9116647,12.802517,-0.028124094,-0.090013504,-0.0057771206,-2.5591238,9.656236,1.3818551,55.218754,-55.93125,4.18125,0,
2022-04-15 10:17:53.876,0.15142359,0.18178388,-0.25153822,40.4341927,-86.9116647,12.802517,-0.32709813,0.078959465,0.077576876,-3.9140596,9.813564,1.4470595,55.275,-55.987503,4.21875,0,
2022-04-15 10:17:54.076,0.071607076,0.033956677,-0.12799142,40.4341927,-86.9116647,12.802517,-0.14063549,0.051859856,0.013951659,-1.5900307,9.687343,0.60837513,55.256252,-56.006252,4.2937503,0,
2022-04-15 10:17:54.276,-0.008493836,0.012807847,-0.09214644,40.4341927,-86.9116647,12.802517,-0.08282566,-0.043120384,-0.002773881,-2.7613173,9.462418,1.8717855,55.218754,-56.04375,4.3125,0,
2022-04-15 10:17:54.475,-0.04560566,0.17369126,-0.06989077,40.4341927,-86.9116647,12.802517,-0.08023715,-0.03320694,0.17202485,-1.628914,9.235697,0.83988076,55.218754,-56.1375,4.2937503,0,
2022-04-15 10:17:54.675,-0.1890273,-0.010308359,-0.016006723,40.4341927,-86.9116647,12.802517,0.06349492,-0.17073631,0.05395639,-3.5012977,9.172886,1.7952151,55.237503,-56.193752,4.33125,0,
2022-04-15 10:17:54.875,-0.16381492,0.17618091,-0.019446332,40.4341968,-86.9118158,12.98605,-0.008566856,-0.11707306,0.21088791,-3.033501,9.216555,1.8777676,55.18125,-56.175003,4.3500004,0,
2022-04-15 10:17:55.075,0.021077124,0.09296792,-0.04320891,40.4341968,-86.9118158,12.98605,-0.06275678,0.022745132,0.080613494,-1.9441684,9.256635,1.183849,55.18125,-56.081253,4.4812503,0,
2022-04-15 10:17:55.275,0.017546311,0.16734171,-0.0073554665,40.4341968,-86.9118158,12.98605,-0.056798458,0.046829224,0.15147996,-2.8630123,9.341579,1.6462619,55.10625,-56.081253,4.51875,0,
2022-04-15 10:17:55.475,-0.0075884857,0.041681513,-0.049093373,40.4341968,-86.9118158,12.98605,-0.052529335,-0.01758194,0.033714056,-2.0440688,9.075378,1.5451652,55.050003,-56.062504,4.4437504,0,
2022-04-15 10:17:55.674,-0.13804293,-0.001643993,-0.019665115,40.4341968,-86.9118158,12.98605,0.009675026,-0.1370821,0.023667693,-1.7970098,8.990433,0.78783685,55.068752,-56.006252,4.4437504,0,
2022-04-15 10:17:55.874,-0.23877081,-0.18261075,0.16815445,40.4341988,-86.9119719,12.823355,0.26655316,-0.2006836,-0.08549631,-2.9126635,10.06481,1.4183456,55.0125,-55.93125,4.4437504,0,
2022-04-15 10:17:56.074,0.34683552,0.3485189,-0.14095949,40.4341988,-86.9119719,12.823355,-0.3422792,0.3174677,0.20901942,-2.8510482,9.848858,1.878964,54.956253,-55.8375,4.4437504,0,
2022-04-15 10:17:56.274,0.11945878,-0.05133663,0.015469421,40.4341988,-86.9119719,12.823355,-0.012796164,0.106209755,-0.0755043,-2.4209383,9.346964,1.7868403,54.881252,-55.781254,4.3500004,0,
2022-04-15 10:17:56.474,-0.20035599,-0.027650543,0.16723968,40.4341988,-86.9119719,12.823355,0.22572017,-0.122870445,0.053192496,-2.3814569,9.332008,1.8065811,54.862503,-55.85625,4.2000003,0,
2022-04-15 10:17:56.682,-0.061773594,7.544216E-4,-0.0367227,40.4342005,-86.91212,12.692645,-0.014872074,-0.06955433,0.010301471,-2.5609183,9.748958,1.643271,54.862503,-55.818752,4.1062503,0,
2022-04-15 10:17:56.873,-0.01141369,0.036612738,-0.012108454,40.4342005,-86.91212,12.692645,-0.016536474,-0.0086193085,0.035631895,-2.4155545,9.287143,1.68694,54.881252,-55.8375,4.0125003,0,
2022-04-15 10:17:57.073,0.050400462,0.06056513,0.015171941,40.4342005,-86.91212,12.692645,-0.01650238,0.06338787,0.046348453,-2.667399,9.400204,1.5684953,54.843754,-55.8375,3.9750001,0,
2022-04-15 10:17:57.274,-0.06370572,-0.07598183,-0.05111433,40.4342005,-86.91212,12.692645,-0.005386591,-0.09078312,-0.06460452,-2.504687,9.143574,1.7042879,54.693752,-55.893753,4.03125,0,
2022-04-15 10:17:57.473,-0.008010796,-0.0032177255,-0.04822757,40.4342005,-86.91212,12.692645,-0.040980816,-0.02541256,-0.008671761,-2.644069,9.497113,1.6013966,54.693752,-55.893753,3.9562502,0,
2022-04-15 10:17:57.673,0.08945577,0.07887766,-0.019854698,40.4342005,-86.91212,12.692645,-0.07434535,0.086569786,0.039958358,-3.074179,8.60459,1.6474584,54.693752,-55.95,3.9375002,0,
2022-04-15 10:17:57.874,-0.0073617753,-0.08068086,-0.083307154,40.4342017,-86.9122701,12.543199,-0.035125017,-0.06360912,-0.09068513,-3.182454,8.702098,2.2271197,54.656254,-56.025,3.9750001,0,
2022-04-15 10:17:58.073,0.025908815,0.09861161,0.008199515,40.4342017,-86.9122701,12.543199,-0.013351679,0.042380333,0.09213245,-1.847259,9.428319,1.076172,54.61875,-56.006252,4.0687504,0,
2022-04-15 10:17:58.272,-0.085954204,-0.15219352,0.08231531,40.4342017,-86.9122701,12.543199,0.14858794,-0.0652895,-0.10481274,-2.5710878,9.507282,2.07697,54.562504,-56.1375,4.0125003,0,
2022-04-15 10:17:58.472,0.010653992,0.064556055,-0.0887406,40.4342017,-86.9122701,12.543199,-0.098926544,-0.004196167,0.04849553,-2.2175484,9.09811,1.1934203,54.487503,-56.1375,3.9562502,0,
2022-04-15 10:17:58.672,0.0013898378,-0.06095938,-0.08813159,40.4342017,-86.9122701,12.543199,-0.059964895,-0.039393425,-0.07960856,-1.8089739,9.075976,2.309672,54.45,-56.156254,3.8437502,0,
2022-04-15 10:17:58.872,0.008649733,0.12071507,0.1122567,40.4342029,-86.9124218,12.353745,0.07281852,0.06321335,0.13397777,-2.0027926,9.195019,1.6743777,54.54375,-56.250004,3.61875,0,
2022-04-15 10:17:59.072,0.04564843,-0.09912787,-0.01802669,40.4342029,-86.9124218,12.353745,-0.003600359,0.014152527,-0.109644055,-2.8917263,9.349955,1.8939191,54.506252,-56.30625,3.73125,0,
2022-04-15 10:17:59.272,0.06458255,0.06120837,-0.10428327,40.4342029,-86.9124218,12.353745,-0.12624764,0.04263401,0.0321908,-2.0847468,9.229715,1.1826526,54.487503,-56.30625,3.6937501,0,
2022-04-15 10:17:59.472,-0.0373061,-0.1141044,0.046275653,40.4342029,-86.9124218,12.353745,0.080960035,-0.033246994,-0.09430325,-1.8089739,8.943773,1.6851454,54.506252,-56.268753,3.6562502,0,
2022-04-15 10:17:59.671,-0.14877965,-0.13757575,0.06262206,40.4342029,-86.9124218,12.353745,0.13916373,-0.13509369,-0.085832,-2.2289143,9.233304,1.750948,54.525,-56.287502,3.61875,0,
2022-04-15 10:17:59.872,0.111783564,0.027038042,-0.109061256,40.4342035,-86.9125646,12.310828,-0.12189245,0.101018906,0.0076414347,-1.474577,10.092328,0.2757728,54.562504,-56.268753,3.6562502,0,
2022-04-15 10:18:00.072,0.22206065,0.16116366,0.044540312,40.4342035,-86.9125646,12.310828,-0.13225794,0.22952175,0.08423841,-3.17049,8.679366,2.5118656,54.562504,-56.30625,3.6937501,0,
2022-04-15 10:18:00.271,-0.15013155,-0.24287708,0.121317275,40.4342035,-86.9125646,12.310828,0.22771311,-0.13851738,-0.15876496,-3.2039895,9.314062,1.6187445,54.675003,-56.30625,3.8812501,0,
2022-04-15 10:18:00.472,-0.07933513,0.07100792,-0.059267346,40.4342035,-86.9125646,12.310828,-0.04627347,-0.08517933,0.073837996,-2.0261226,9.24826,1.7886349,54.6375,-56.250004,3.9750001,0,
2022-04-15 10:18:00.671,0.075593024,0.020216802,0.013866467,40.4342035,-86.9125646,12.310828,-0.014372587,0.07815838,-3.0994415E-5,-3.144767,10.642677,1.6019948,54.693752,-56.250004,3.825,0,
2022-04-15 10:18:00.871,0.207242,0.163715,-0.13763984,40.4342041,-86.9127066,12.339312,-0.21611333,0.19222736,0.070994735,-3.290131,9.243474,0.9559326,54.73125,-56.23125,3.8625002,0,
2022-04-15 10:18:01.072,-0.30690503,-0.35555843,0.026764631,40.4342041,-86.9127066,12.339312,0.12485528,-0.3776245,-0.25127625,-3.1256247,10.506286,0.6442675,54.73125,-56.268753,3.8625002,0,
2022-04-15 10:18:01.271,0.03515607,0.2384223,-0.25931576,40.4342041,-86.9127066,12.339312,-0.24706864,0.101368904,0.23239458,-2.8151557,9.47797,-0.5413761,54.73125,-56.362503,3.8437502,0,
2022-04-15 10:18:01.471,0.08991833,-0.41765934,-0.1759746,40.4342041,-86.9127066,12.339312,-0.015709162,-0.07076359,-0.45633042,-2.9778678,8.755338,2.6321049,54.787502,-56.531254,3.8625002,0,
2022-04-15 10:18:01.671,0.077804476,0.44364625,0.23085792,40.4342041,-86.9127066,12.339312,0.108184576,0.22243023,0.44157875,-2.1906292,9.24467,1.3196417,54.9,-56.60625,3.8625002,0,
2022-04-15 10:18:01.871,-0.0571388,-0.42491925,0.0898024,40.4342013,-86.9128539,12.251954,0.20782185,-0.11313152,-0.3686421,-3.080759,9.559326,1.5529419,54.825,-56.7,3.825,0,
2022-04-15 10:18:02.071,-0.15154953,-0.032864243,-0.23407632,40.4342013,-86.9128539,12.251954,-0.13845086,-0.24274921,-0.027261853,-3.1830523,9.541979,1.9136599,54.843754,-56.850002,3.9562502,0,
2022-04-15 10:18:02.27,0.09302,0.09887816,0.042690378,40.4342013,-86.9128539,12.251954,0.014341831,0.117860794,0.07845521,-2.12363,9.358928,0.62452674,54.881252,-56.86875,3.99375,0,
2022-04-15 10:18:02.471,-0.0974357,-0.16569178,0.12090069,40.4342013,-86.9128539,12.251954,0.16838932,-0.07856846,-0.13052392,-1.4709877,9.497113,1.352543,54.825,-56.86875,3.9750001,0,
2022-04-15 10:18:02.669,-0.028918982,0.15397893,0.3065768,40.4342013,-86.9128539,12.251954,0.2735932,0.06252766,0.19942975,-1.1150553,9.593424,1.4273187,54.843754,-57.000004,3.7687502,0,
2022-04-15 10:18:02.869,4.9395487E-5,-0.09895186,2.820436E-4,40.4341999,-86.9129949,12.289052,0.02344513,-0.0093278885,-0.09568107,-1.5631114,9.022736,1.7706888,54.9,-56.98125,3.9375002,0,
2022-04-15 10:18:03.07,0.16132958,0.23853189,-0.32532573,40.4341999,-86.9129949,12.289052,-0.37169456,0.14952374,0.16806948,-2.6925237,9.392427,0.4971089,54.937504,-56.737503,4.05,0,
2022-04-15 10:18:03.269,0.21369663,-0.27442855,-0.10905145,40.4341999,-86.9129949,12.289052,-0.094604254,0.079125404,-0.34301412,-3.1669009,9.227921,1.7485552,54.99375,-56.625004,4.2562504,0,
2022-04-15 10:18:03.468,-0.20008706,-1.3591722E-4,0.095479146,40.4341999,-86.9129949,12.289052,0.1463306,-0.15411377,0.063145995,-2.6871397,10.146765,1.3854443,55.0875,-56.437504,4.4625,0,
2022-04-15 10:18:03.668,-0.011576317,0.07434858,0.13954456,40.4341999,-86.9129949,12.289052,0.12945151,0.029725075,0.08656287,-1.669592,9.692128,0.81954175,55.237503,-56.175003,4.51875,0,
2022-04-15 10:18:03.869,-0.005916206,-0.039722834,-0.054462854,40.4341996,-86.9131352,12.221177,-0.039489746,-0.029966354,-0.046061754,-2.0398812,9.3104725,1.605584,55.350002,-56.062504,4.6875,0,
2022-04-15 10:18:04.068,-0.12296457,-0.046968956,0.13227628,40.4341996,-86.9131352,12.221177,0.16342998,-0.08988857,0.005837202,-3.2530425,9.139386,0.65024954,55.500004,-56.062504,4.875,0,
2022-04-15 10:18:04.268,-0.14745396,0.06329177,0.07779153,40.4341996,-86.9131352,12.221177,0.104311705,-0.095734596,0.10841584,-2.158326,8.933603,1.655235,55.687504,-55.781254,5.2312503,0,
2022-04-15 10:18:04.468,0.05414602,-0.029426513,-0.018347315,40.4341996,-86.9131352,12.221177,-0.02785492,0.03586483,-0.0455209,-2.4077778,8.860622,1.9962122,55.74375,-55.612503,5.2125,0,
2022-04-15 10:18:04.668,0.018466357,0.050941847,0.084864095,40.4341996,-86.9131352,12.221177,0.07373953,0.030690193,0.06130731,0.42053857,9.134003,1.0767702,55.800003,-55.575,5.1375003,0,
2022-04-15 10:18:04.868,0.123071,0.09924958,-0.10185949,40.4342001,-86.9132785,12.151421,-0.13370538,0.094864845,0.09217286,0.42053857,9.134003,1.0767702,55.818752,-55.537502,5.0437503,0,
2022-04-15 10:18:05.068,-0.039737705,-0.2744016,-0.0019059591,40.4342001,-86.9132785,12.151421,0.07356429,-0.075491905,-0.25645316,-1.9280169,8.963513,1.5810575,55.93125,-55.500004,5.025,0,
2022-04-15 10:18:05.268,-0.08686064,0.111799255,0.066247374,40.4342001,-86.9132785,12.151421,0.061698675,-0.02829647,0.14080179,-2.8725836,9.149555,1.387239,55.968754,-55.537502,4.9500003,0,
2022-04-15 10:18:05.467,-0.041536752,-0.116257146,-0.028304262,40.4342001,-86.9132785,12.151421,0.005579233,-0.076262474,-0.100970626,-2.8935208,9.268599,0.99601245,56.062504,-55.406254,4.8562503,0,
2022-04-15 10:18:05.667,0.059805505,0.04248268,-0.2070084,40.4342001,-86.9132785,12.151421,-0.21947026,0.006720543,0.0046470165,-1.6797615,9.480962,1.2424731,56.156254,-55.237503,4.7625003,0,
2022-04-15 10:18:05.867,-0.056732886,-0.124312475,-0.09409203,40.4342031,-86.9134217,12.061727,-0.038362026,-0.11231136,-0.11593115,-2.7589245,9.209376,1.4811572,56.1375,-55.218754,4.7250004,0,
2022-04-15 10:18:06.067,0.10137062,0.15668398,-0.04890263,40.4342031,-86.9134217,12.061727,-0.091380835,0.1195879,0.12068808,-2.5507488,9.507881,0.8009974,56.287502,-55.18125,4.7625003,0,
2022-04-15 10:18:06.267,0.10628475,-0.08362817,-0.20555905,40.4342031,-86.9134217,12.061727,-0.19694495,-0.020321846,-0.14609706,-3.6604204,9.086744,1.4488541,56.362503,-55.0875,4.8,0,
2022-04-15 10:18:06.467,-0.09395698,-0.03746472,-0.026856096,40.4342031,-86.9134217,12.061727,0.01915145,-0.101614,-0.016142607,-2.4705894,8.956335,1.8424734,56.4,-54.975002,4.7250004,0,
2022-04-15 10:18:06.666,-0.060661476,-0.02440143,-9.80667E-4,40.4342031,-86.9134217,12.061727,0.026525497,-0.059770584,2.84791E-4,-3.758526,9.171091,1.3866407,56.343754,-54.9,4.5375004,0,
2022-04-15 10:18:06.869,0.0038844738,-0.020298455,-0.015797678,40.434207,-86.9135646,11.991523,-0.00993681,-0.009106636,-0.022248864,-3.758526,9.171091,1.3866407,56.4,-54.73125,4.5750003,0,
2022-04-15 10:18:07.067,0.15259421,0.077955715,-0.1949733,40.434207,-86.9135646,11.991523,-0.24869204,0.07397556,-0.0075212717,-3.1375887,9.319446,1.655235,56.4,-54.693752,4.6687503,0,
2022-04-15 10:18:07.266,0.22944582,0.08343431,-0.194561,40.434207,-86.9135646,11.991523,-0.26497722,0.16416168,-0.017282128,-3.0149565,8.920443,1.1120644,56.456253,-54.675003,4.7625003,0,
2022-04-15 10:18:07.467,-0.18244374,-0.26212078,0.075381055,40.434207,-86.9135646,11.991523,0.1938994,-0.19987106,-0.1735797,-3.2817562,9.257233,1.4015958,56.437504,-54.6375,4.8562503,0,
2022-04-15 10:18:07.666,-0.021647278,0.04126237,0.173514,40.434207,-86.9135646,11.991523,0.1611445,0.046237946,0.06459713,-3.2009985,9.814162,1.1330016,56.4,-54.600002,4.8562503,0,
2022-04-15 10:18:07.865,0.14212291,0.007626459,-0.11097179,40.4342104,-86.9137079,11.970482,-0.15108895,0.07539463,-0.06371498,-3.78724,8.737391,1.2658032,56.362503,-54.675003,4.89375,0,
2022-04-15 10:18:08.065,0.08826189,-0.011053298,-0.15371718,40.4342104,-86.9137079,11.970482,-0.16682982,0.029878616,-0.05306959,-2.8743782,9.360124,1.0773684,56.287502,-54.768753,5.08125,0,
2022-04-15 10:18:08.265,-0.04624825,-0.072818995,0.10388881,40.4342104,-86.9137079,11.970482,0.124311686,-0.025384903,-0.046223402,-2.2839491,9.05145,1.1431711,56.250004,-54.843754,5.30625,0,
2022-04-15 10:18:08.465,-0.018554458,-0.03554728,-0.041766502,40.4342104,-86.9137079,11.970482,-0.030038357,-0.035450935,-0.034543395,-1.9926231,8.736196,0.8979067,56.156254,-54.956253,5.4,0,
2022-04-15 10:18:08.665,-0.21249959,-0.10158624,0.077274755,40.4342104,-86.9137079,11.970482,0.19261289,-0.15445709,-0.022147536,-2.242673,8.765508,2.6536403,56.062504,-55.050003,5.3812504,0,
2022-04-15 10:18:08.864,0.10990313,0.33593,0.10011968,40.434212,-86.9138516,12.0484705,-0.08611488,0.16950798,0.31432927,-2.242673,8.765508,2.6536403,55.95,-55.125004,5.25,0,
2022-04-15 10:18:09.065,-0.78676033,-0.88170624,-0.27431864,40.434212,-86.9138516,12.0484705,0.344728,-0.8594122,-0.783723,-1.3411771,7.8670025,2.248655,55.93125,-55.256252,5.0625,0,
2022-04-15 10:18:09.265,-0.17009194,0.66754746,0.24497057,40.434212,-86.9138516,12.0484705,0.1734209,0.05701828,0.7079799,-3.182454,11.880962,1.1048858,55.8375,-55.36875,4.96875,0,
2022-04-15 10:18:09.464,0.4158395,0.3415134,-0.5089173,40.434212,-86.9138516,12.0484705,-0.49772644,0.49010372,0.24620605,-2.7930222,9.663414,-0.67477596,55.818752,-55.331253,4.93125,0,
2022-04-15 10:18:09.665,-0.34512103,-0.4260442,-0.008650109,40.434212,-86.9138516,12.0484705,0.28977084,-0.3624544,-0.2921586,-3.03709,9.367901,2.4388845,55.818752,-55.237503,4.8562503,0,
2022-04-15 10:18:09.864,-0.41270825,0.4819485,0.12751809,40.4342149,-86.9139928,11.894093,0.13202739,-0.21087074,0.597466,-3.0562327,9.477372,1.41356,55.85625,-55.237503,4.78125,0,
2022-04-15 10:18:10.065,0.14153475,0.3220596,-0.12713912,40.4342149,-86.9139928,11.894093,-0.17777777,0.18450356,0.27252948,-2.3940191,9.698709,0.4660022,55.893753,-55.2,4.7250004,0,
2022-04-15 10:18:10.264,0.08493571,0.18031986,-0.18264717,40.4342149,-86.9139928,11.894093,-0.24685645,0.034729958,0.10461855,-3.5826538,9.254242,1.7030915,55.875004,-55.218754,4.59375,0,
2022-04-15 10:18:10.463,-0.32220206,0.21015115,0.08363902,40.4342149,-86.9139928,11.894093,0.1304946,-0.18118286,0.32421768,-3.434897,8.733803,2.1182463,55.8375,-55.218754,4.55625,0,
2022-04-15 10:18:10.663,-0.18885571,0.15789118,0.076763615,40.4342149,-86.9139928,11.894093,0.08535361,-0.09308338,0.22480881,-3.2368908,9.062218,2.5549364,55.781254,-55.162502,4.51875,0,
2022-04-15 10:18:10.863,0.00994159,0.10410195,-0.05113211,40.4342163,-86.9141313,11.733255,-0.06404185,0.012168884,0.09644222,-1.5014962,9.948758,0.9086744,55.781254,-55.125004,4.4625,0,
2022-04-15 10:18:11.063,-0.031079724,-0.06939638,-0.38632017,40.4342163,-86.9141313,11.733255,-0.2663715,-0.23331928,-0.1721437,-2.5441687,8.783454,2.9018958,55.687504,-55.143753,4.5,0,
2022-04-15 10:18:11.263,0.30892926,0.98271376,-0.05990871,40.4342163,-86.9141313,11.733255,-0.24952102,0.560235,0.8298365,-2.8749764,8.642277,0.5491528,55.65,-55.18125,4.40625,0,
2022-04-15 10:18:11.463,0.1397114,0.003814526,0.0070377113,40.4342163,-86.9141313,11.733255,-0.049107075,0.12710762,-0.031867027,-2.3928227,8.443074,2.0841484,55.48125,-55.143753,4.2000003,0,
2022-04-15 10:18:11.662,-0.36863157,0.059573814,-0.08093473,40.4342163,-86.9141313,11.733255,0.031955957,-0.3533945,0.14170349,-2.5603201,8.963513,1.6761723,55.425003,-55.0875,4.0687504,0,
2022-04-15 10:18:11.863,-0.21884571,0.16085187,0.05556674,40.434216,-86.9142651,11.328535,0.08055663,-0.13041687,0.23099029,-3.1986058,9.112467,2.1870399,55.425003,-55.125004,4.18125,0,
2022-04-15 10:18:12.063,0.035920106,0.3668474,0.059554722,40.434216,-86.9142651,11.328535,-0.066503525,0.12548923,0.3453169,-2.8307092,9.233903,1.884946,55.425003,-55.218754,4.18125,0,
2022-04-15 10:18:12.262,-0.08270972,0.2550884,0.051618356,40.434216,-86.9142651,11.328535,-0.0061719418,-0.0023450851,0.27300525,-3.0233314,9.226724,2.111666,55.443752,-55.218754,4.18125,0,
2022-04-15 10:18:12.463,-0.06385079,0.16359594,0.02120069,40.434216,-86.9142651,11.328535,1.0728836E-5,-0.016983032,0.17607272,-2.7314072,9.431311,1.5409778,55.36875,-55.237503,4.21875,0,
2022-04-15 10:18:12.662,-0.040599596,-0.0072282767,0.034658555,40.434216,-86.9142651,11.328535,0.04626012,-0.02590847,0.009515405,-2.565106,9.241679,1.5918252,55.443752,-55.256252,4.125,0,
2022-04-15 10:18:12.862,0.036718618,0.08182597,-0.0073713865,40.4342172,-86.9143947,10.74221,-0.038193226,0.046535492,0.066886544,-2.565106,9.241679,1.5918252,55.443752,-55.29375,4.05,0,
2022-04-15 10:18:13.062,-0.052445315,-0.052672543,6.606756E-4,40.4342172,-86.9143947,10.74221,0.03169608,-0.05714512,-0.035427928,-2.6321049,9.139984,1.692922,55.518753,-55.350002,4.1062503,0,
2022-04-15 10:18:13.262,0.10202981,0.07802288,-0.032437578,40.4342172,-86.9143947,10.74221,-0.07050729,0.09893894,0.052817225,-1.7222341,9.138788,1.2795619,55.575,-55.48125,4.125,0,
2022-04-15 10:18:13.462,-0.01570197,-0.0997434,-0.007897114,40.4342172,-86.9143947,10.74221,0.028914213,-0.037441254,-0.08955324,-3.0586255,9.201599,1.8891335,55.612503,-55.500004,4.0125003,0,
2022-04-15 10:18:13.662,-0.06862581,-0.02564729,0.08323029,40.4342172,-86.9143947,10.74221,0.106232405,-0.028928757,0.013128877,-3.0502508,9.356535,1.9507487,55.593754,-55.593754,4.1625004,0,
2022-04-15 10:18:13.861,0.07689487,0.14063662,-0.046734314,40.4342169,-86.9145181,10.210697,-0.11852598,0.07351208,0.09177768,-3.473182,8.806186,1.8454645,55.350002,-55.29375,4.5,0,
2022-04-15 10:18:14.068,-0.0013920517,0.011031456,-0.08822466,40.4342169,-86.9145181,10.210697,-0.07996011,-0.03847027,-0.005800128,-3.19382,9.140582,1.841277,55.0125,-55.050003,4.33125,0,
2022-04-15 10:18:14.261,-0.06232974,0.06980958,-0.013961343,40.4342169,-86.9145181,10.210697,-0.010259151,-0.048225403,0.080761075,-3.1310084,8.875577,2.3054845,54.787502,-55.050003,4.14375,0,
2022-04-15 10:18:14.462,-0.049624506,0.030268122,0.03644956,40.4342169,-86.9145181,10.210697,0.040112734,-0.017352104,0.052888513,-3.2470603,9.031709,2.4532413,54.675003,-55.143753,4.1062503,0,
2022-04-15 10:18:14.66,-0.023602365,0.08990269,0.05379535,40.4342169,-86.9145181,10.210697,0.02743578,0.019021034,0.10207343,-2.8031917,8.964112,2.0165513,54.693752,-55.18125,4.0687504,0,
2022-04-15 10:18:14.861,-0.057252593,0.07227589,-0.13170214,40.4342179,-86.9146348,9.592906,-0.11531854,-0.09672642,0.056504488,-2.8031917,8.964112,2.0165513,54.61875,-55.237503,3.99375,0,
2022-04-15 10:18:15.06,-0.0020335428,0.17810825,0.034592487,40.4342179,-86.9146348,9.592906,-0.022585869,0.049743652,0.17302823,-3.0867412,9.223733,1.8681962,54.487503,-55.350002,3.91875,0,
2022-04-15 10:18:15.26,-0.061540887,-0.19396216,0.013630854,40.4342179,-86.9146348,9.592906,0.07900953,-0.09590912,-0.16171992,-3.1082766,9.582657,1.4943178,54.393753,-55.331253,3.7125,0,
2022-04-15 10:18:15.46,0.12394629,0.002624238,0.052966062,40.4342179,-86.9146348,9.592906,0.006742716,0.13266373,-0.02301836,-2.7116663,9.113664,1.6965113,54.487503,-55.65,3.3375,0,
2022-04-15 10:18:15.66,-0.014880618,-0.0754937,-0.08785193,40.4342179,-86.9146348,9.592906,-0.051024675,-0.06611252,-0.08163524,-3.0149565,9.002397,1.7443677,54.843754,-55.85625,3.4687502,0,
2022-04-15 10:18:15.86,0.08977647,-0.039517026,-0.091183275,40.4342204,-86.9147428,8.961951,-0.10172653,0.042840004,-0.07584357,-2.2869403,9.0747795,1.7318054,54.937504,-55.893753,3.5062501,0,
2022-04-15 10:18:16.059,-0.035379566,-0.08646114,0.03824149,40.4342204,-86.9147428,8.961951,0.07189679,-0.03351116,-0.062430024,-2.9569306,8.75474,1.7150556,54.99375,-55.85625,3.5062501,0,
2022-04-15 10:18:16.259,-0.027466588,-0.040902458,-0.029296555,40.4342204,-86.9147428,8.961951,-0.0034143925,-0.045308113,-0.034946084,-3.1483564,9.2997055,1.8957137,54.956253,-55.781254,3.54375,0,
2022-04-15 10:18:16.459,0.08470587,0.09342585,0.061169833,40.4342204,-86.9147428,8.961951,-0.016973257,0.118727684,0.07253182,-3.0209386,8.600403,2.1541386,54.975002,-55.66875,3.54375,0,
2022-04-15 10:18:16.659,-0.057440665,-0.15664393,-0.021810995,40.4342204,-86.9147428,8.961951,0.046015263,-0.09014416,-0.13442135,-2.8468606,9.211769,1.878964,54.937504,-55.518753,3.4875002,0,
2022-04-15 10:18:16.859,0.09234336,0.15405415,-0.08718823,40.4342215,-86.9148446,8.431606,-0.15451694,0.076024055,0.10102785,-2.8468606,9.211769,1.878964,54.99375,-55.406254,3.5062501,0,
2022-04-15 10:18:17.059,-0.0053057615,-0.12433853,0.05537228,40.4342215,-86.9148446,8.431606,0.08784461,-0.005346298,-0.103966594,-2.8779674,9.127422,1.8999012,55.0125,-55.406254,3.525,0,
2022-04-15 10:18:17.258,-0.006568646,-0.10224937,0.04284696,40.4342215,-86.9148446,8.431606,0.06860328,-0.0049533844,-0.08719516,-2.3659034,9.519845,1.9872392,54.975002,-55.3875,3.4875002,0,
2022-04-15 10:18:17.459,0.039456762,0.05980097,0.041866735,40.4342215,-86.9148446,8.431606,5.2666664E-4,0.06446934,0.05224216,-2.9503503,8.803793,2.0781665,54.956253,-55.3875,3.525,0,
2022-04-15 10:18:17.659,-0.13459817,-0.006673011,-0.08862862,40.4342215,-86.9148446,8.431606,-0.0031092167,-0.16068172,0.0137091875,-3.2979078,8.955139,2.7960134,54.91875,-55.48125,3.45,0,
2022-04-15 10:18:17.858,-0.059974805,0.46006107,0.06346978,40.4342207,-86.914939,7.969454,-0.11374545,0.04480076,0.4520359,-3.2979078,8.955139,2.7960134,54.975002,-55.518753,3.3937502,0,
2022-04-15 10:18:18.059,-0.35294414,0.5282644,-0.091985464,40.4342207,-86.914939,7.969454,-0.10897064,-0.20516205,0.598438,-3.6137605,9.733404,1.5080764,54.91875,-55.593754,3.2812502,0,
2022-04-15 10:18:18.258,-0.058427572,0.6451926,-0.052518606,40.4342207,-86.914939,7.969454,-0.24075222,0.0148983,0.60354114,-2.5381866,8.566305,2.2319052,55.068752,-55.687504,3.2812502,0,
2022-04-15 10:18:18.458,-0.3691374,0.2590059,-0.04220824,40.4342207,-86.914939,7.969454,0.030390024,-0.29740238,0.34022975,-3.225525,9.167501,2.8432715,55.125004,-55.8375,3.2250001,0,
2022-04-15 10:18:18.658,-0.010050133,0.4919554,-0.031107381,40.4342207,-86.914939,7.969454,-0.24059224,-5.874634E-4,0.43035316,-3.0311081,8.933005,3.4229329,55.218754,-55.893753,3.16875,0,
2022-04-15 10:18:18.857,-0.08752787,0.5933881,0.068053335,40.4342223,-86.9150206,6.7141223,-0.17454433,2.2888184E-5,0.57787204,-3.0311081,8.933005,3.4229329,55.425003,-55.968754,3.1125002,0,
2022-04-15 10:18:19.057,-0.2505048,0.12940024,-0.061855596,40.4342223,-86.9150206,6.7141223,0.021119356,-0.2269125,0.17716622,-3.1782668,8.53161,3.1375887,55.55625,-56.081253,3.05625,0,
2022-04-15 10:18:19.258,-0.09438905,0.16666329,-0.011148229,40.4342223,-86.9150206,6.7141223,-0.03828001,-0.07647228,0.17174649,-3.0526435,8.704491,3.5742788,55.800003,-56.04375,3.0937502,0,
2022-04-15 10:18:19.457,-0.05722656,0.2885621,0.061159804,40.4342223,-86.9150206,6.7141223,-0.06103444,0.007840157,0.29410338,-3.1800613,8.733205,3.3846476,55.8375,-56.175003,3.1125002,0,
2022-04-15 10:18:19.657,-0.06398113,0.16517422,-0.033639517,40.4342223,-86.9150206,6.7141223,-0.06732583,-0.060196877,0.15604901,-3.0119655,8.8187475,3.2488549,55.987503,-56.175003,3.2062502,0,
2022-04-15 10:18:19.857,0.02951173,-0.045333225,8.0243405E-4,40.4342258,-86.9150853,4.6909103,0.0067646503,0.017287254,-0.05081415,-3.9349968,9.352347,3.0029924,56.100002,-55.575,2.4562502,0,
2022-04-15 10:18:20.057,0.21500915,0.061164446,0.014571395,40.4342258,-86.9150853,4.6909103,-0.10283065,0.19833279,-0.016501904,-3.2566316,8.437093,2.1188445,55.48125,-55.425003,3.80625,0,
2022-04-15 10:18:20.257,-0.19214103,-0.818591,-0.3477047,40.4342258,-86.9150853,4.6909103,0.16908264,-0.44389534,-0.7760644,-3.3355947,9.196814,3.0903304,55.29375,-55.65,2.1375,0,
2022-04-15 10:18:20.458,0.034757614,-0.57663995,-0.0567984,40.4342258,-86.9150853,4.6909103,0.1709466,-0.07214546,-0.5500183,-3.1226335,9.174082,2.8965118,55.143753,-55.218754,2.04375,0,
2022-04-15 10:18:20.656,0.39291412,-0.0024323761,0.15499155,40.4342258,-86.9150853,4.6909103,-0.04977274,0.41315365,-0.07236385,-2.8319056,8.589037,2.882155,54.787502,-55.48125,1.7062501,0,
2022-04-15 10:18:20.856,0.031659372,-0.12069287,-0.11577165,40.4342298,-86.9151218,3.1271584,-0.037719965,-0.05127716,-0.15786076,-3.0843484,8.094919,3.4133615,55.218754,-55.575,2.0625,0,
2022-04-15 10:18:21.055,-0.13116384,0.02787932,-0.37176532,40.4342298,-86.9151218,3.1271584,-0.2152319,-0.32119942,-0.08183408,-2.9742785,8.933603,3.9684963,55.031254,-55.800003,0.50625,0,
2022-04-15 10:18:21.256,-0.20007394,0.19797312,-0.063746355,40.4342298,-86.9151218,3.1271584,-0.04255247,-0.17971992,0.22175789,-3.5353954,9.107083,3.397808,55.050003,-55.218754,1.29375,0,
2022-04-15 10:18:21.457,0.01632995,0.061946258,0.021709474,40.4342298,-86.9151218,3.1271584,-0.013567686,0.031806946,0.05813384,-2.8510482,9.016156,2.9168508,54.487503,-55.500004,0.80625004,0,
2022-04-15 10:18:21.657,0.17188081,-0.25619137,-0.15230104,40.4342298,-86.9151218,3.1271584,-0.10847044,0.04894352,-0.3228178,-2.6823542,9.01137,2.3629124,55.050003,-55.575,1.29375,0,
2022-04-15 10:18:21.855,0.17882137,-0.5620272,0.09517014,40.4342331,-86.9151524,1.3175734,0.1668663,0.083325386,-0.5675576,-2.4885356,9.4636135,1.5134603,55.912502,-55.143753,2.15625,0,
2022-04-15 10:18:22.055,0.46155518,-1.1474792,0.24733312,40.4342331,-86.9151524,1.3175734,0.34705138,0.28813267,-1.1779008,-2.3018954,9.445667,1.3639089,56.7,-53.41875,3.6375,0,
2022-04-15 10:18:22.255,0.6160576,-1.7069483,0.30115074,40.4342331,-86.9151524,1.3175734,0.48450065,0.36059952,-1.7375611,-2.2504497,9.521041,1.4799608,56.193752,-53.006252,3.075,0,
2022-04-15 10:18:22.455,0.54825854,-1.5710102,0.5119194,40.4342331,-86.9151524,1.3175734,0.68193316,0.34068775,-1.5651267,-2.4622145,9.461221,1.4536397,55.912502,-53.98125,2.15625,0,
2022-04-15 10:18:22.655,0.6408418,-1.3569905,0.32854944,40.4342331,-86.9151524,1.3175734,0.43034697,0.41328335,-1.4156427,-2.3425734,9.399008,1.2861422,55.593754,-54.768753,1.66875,0,
2022-04-15 10:18:22.855,0.42118937,-0.8969942,0.1928929,40.4342341,-86.915163,0.7467892,0.27054644,0.24899006,-0.94022095,-2.5698915,9.475577,1.3615161,55.237503,-56.60625,0.675,0,
2022-04-15 10:18:23.057,0.22017515,-0.6467245,0.13625768,40.4342341,-86.915163,0.7467892,0.22759628,0.11815262,-0.6477158,-2.3868406,9.452846,1.6881363,55.068752,-57.54375,-1.29375,0,
2022-04-15 10:18:23.256,0.23017418,-0.29380727,0.11396963,40.4342341,-86.915163,0.7467892,0.12257218,0.19242191,-0.31660986,-2.053042,9.897911,1.3363914,55.275,-56.568752,-0.50625,0,
2022-04-15 10:18:23.456,0.13140234,-0.28838062,0.11310453,40.4342341,-86.915163,0.7467892,0.13718414,0.105576515,-0.2885424,-1.8305093,9.286545,1.396212,54.7125,-56.41875,-0.075,0,
2022-04-15 10:18:23.655,0.0635115,-0.2820728,0.29523975,40.4342341,-86.915163,0.7467892,0.3210001,0.06301594,-0.25249398,-1.9046868,9.846465,1.180858,54.35625,-56.343754,-0.4875,0,
2022-04-15 10:18:23.855,0.09196172,-0.25914153,0.06947225,40.434235,-86.9151737,0.7985057,0.09336972,0.062304497,-0.26045716,-1.7467605,10.028319,1.2634103,54.975002,-56.23125,-0.58125,0,
2022-04-15 10:18:24.055,0.08166232,0.005195838,0.13825333,40.434235,-86.9151737,0.7985057,0.12609017,0.09935188,0.006339431,-1.7599211,9.94816,1.1318051,55.18125,-56.11875,-1.125,0,
2022-04-15 10:18:24.255,-0.045944188,0.007042609,0.1505582,40.434235,-86.9151737,0.7985057,0.15157807,-0.03552723,0.024292946,-1.4739788,10.097712,0.7286145,54.99375,-55.706253,-1.7437501,0,
2022-04-15 10:18:24.455,0.039795995,-0.052171536,0.14786917,40.434235,-86.9151737,0.7985057,0.14896321,0.044747353,-0.044480562,-1.4907285,9.74477,0.86261255,54.581253,-56.662502,-1.5937501,0,
2022-04-15 10:18:24.654,0.096942775,-0.13423108,0.22856869,40.434235,-86.9151737,0.7985057,0.23323476,0.08899021,-0.1316883,-1.308874,9.91825,0.6053841,53.831253,-56.11875,-1.7437501,0,
2022-04-15 10:18:24.854,0.14188682,-0.21236335,0.16353422,40.4342408,-86.9151911,1.888736,0.17265964,0.108613014,-0.22442228,-1.5744773,9.95175,0.44865423,53.568752,-56.11875,-2.41875,0,
2022-04-15 10:18:25.053,0.12991641,7.1302336E-4,0.38462353,40.4342408,-86.9151911,1.888736,0.3918358,0.10558796,-0.011397541,-1.6235301,9.91825,0.2321038,53.906254,-56.287502,-4.0687504,0,
2022-04-15 10:18:25.253,0.06714892,-0.27658167,0.015746418,40.4342408,-86.9151911,1.888736,0.04610312,0.06940174,-0.27260274,0.043070808,9.889536,1.1533405,53.643753,-56.30625,-5.3250003,0,
2022-04-15 10:18:25.453,0.10460267,0.11330693,0.5663992,40.4342408,-86.9151911,1.888736,0.559347,0.088900566,0.15432388,-0.32422748,9.759128,0.77647096,52.8375,-56.550003,-6.4125004,0,
2022-04-15 10:18:25.652,0.09069644,0.40590015,1.0428472,40.4342408,-86.9151911,1.888736,0.9971323,0.08747387,0.508514,-0.41635114,9.8727865,1.038485,52.4625,-56.081253,-7.14375,0,
2022-04-15 10:18:25.852,0.018813953,0.34189072,0.78347456,40.4342557,-86.915216,3.0745447,0.72387546,0.034279823,0.45376742,-0.47138608,9.675379,1.463211,52.18125,-56.2125,-8.94375,0,
2022-04-15 10:18:26.052,0.10829551,0.48204622,0.98463804,40.4342557,-86.915216,3.0745447,0.8962725,0.107934,0.6313908,0.051445685,9.771091,1.5553347,50.268753,-56.175003,-8.775001,0,
2022-04-15 10:18:26.252,0.13227153,0.53487736,0.85269606,40.4342557,-86.915216,3.0745447,0.8168416,0.050370216,0.6007601,-0.1698904,10.382458,0.8542377,47.86875,-56.100002,-9.95625,0,
2022-04-15 10:18:26.452,0.18202916,0.46917623,0.7454628,40.4342593,-86.9152199,3.074045,0.74766016,0.076851845,0.49403816,-0.9092726,9.846465,0.58983076,48.35625,-55.500004,-12.337501,0,
2022-04-15 10:18:26.652,-0.04918681,0.14382273,0.0015833993,40.4342593,-86.9152199,3.074045,-0.019468844,-0.02999401,0.14774352,-1.0348958,9.60479,0.92243314,47.9625,-55.537502,-15.056251,0,
2022-04-15 10:18:26.852,-0.0680196,-0.048465606,-0.09856065,40.4342881,-86.9152397,4.2636204,-0.12060779,-0.03292179,-0.032553017,-2.8510482,10.9017,0.33020952,47.756252,-56.062504,-15.7875,0,
2022-04-15 10:18:27.051,-0.17163579,-0.1770264,-0.1411055,40.4342881,-86.9152397,4.2636204,-0.19970083,-0.14714527,-0.13847673,-2.4658036,9.875179,0.61734825,46.706253,-57.281254,-16.275002,0,
2022-04-15 10:18:27.251,-7.3986873E-4,0.09966052,-0.26735806,40.4342881,-86.9152397,4.2636204,-0.21888947,0.14640617,0.10984409,-2.225325,9.912268,-0.47736812,45.91875,-56.437504,-15.075001,0,
2022-04-15 10:18:27.452,-0.14320791,-0.19007464,-0.28571203,40.4342881,-86.9152397,4.2636204,-0.33151793,-0.08014965,-0.14812201,-3.802195,10.457831,0.7298109,45.318752,-56.775,-14.00625,0,
2022-04-15 10:18:27.651,-0.28469455,-0.36216974,-0.6457438,40.4342881,-86.9152397,4.2636204,-0.71095145,-0.105176926,-0.33569163,-1.308874,9.37149,0.2416751,45.54375,-56.362503,-14.512501,0,
2022-04-15 10:18:27.851,-0.14987786,-0.19984782,-0.3073933,40.4343444,-86.9152452,5.5812016,-0.34731126,-0.06887627,-0.17755032,-1.9363917,9.728021,0.35234314,44.662502,-56.756252,-14.512501,0,
2022-04-15 10:18:28.05,-0.05633631,-0.061074328,-0.13632034,40.4343444,-86.9152452,5.5812016,-0.15045261,-0.0107584,-0.052300632,-1.6971095,9.801002,0.1268196,44.5875,-56.737503,-14.531251,0,
2022-04-15 10:18:28.25,-0.059809133,-0.114133336,-0.0933979,40.4343444,-86.9152452,5.5812016,-0.11269021,-0.047776222,-0.10171071,-2.2917259,9.730413,0.4755735,44.662502,-56.625004,-14.587501,0,
2022-04-15 10:18:28.45,-0.01623705,0.04318034,-0.11051922,40.4343444,-86.9152452,5.5812016,-0.10489249,0.03671646,0.044633478,-1.8496519,9.688539,0.0735793,44.53125,-56.5875,-14.775001,0,
2022-04-15 10:18:28.65,-0.09242991,-0.060535688,-0.010613385,40.4343444,-86.9152452,5.5812016,-0.0537467,-0.090483665,-0.035277516,-2.5238297,9.598808,0.22911277,44.362503,-56.86875,-15.01875,0,
2022-04-15 10:18:28.85,-0.15874192,-0.11066409,-0.25117818,40.434406,-86.9152514,6.8636208,-0.30339527,-0.05692005,-0.07243909,-2.5238297,9.598808,0.22911277,44.268753,-56.98125,-15.000001,0,
2022-04-15 10:18:29.051,-0.10383103,-0.09177282,-0.24115764,40.434406,-86.9152514,6.8636208,-0.27062678,0.0040369034,-0.06407024,-1.9040886,9.842278,-0.26141587,44.287502,-57.018753,-14.981251,0,
2022-04-15 10:18:29.251,-0.04317213,-0.06303481,-0.029731356,40.434406,-86.9152514,6.8636208,-0.05019045,-0.04044819,-0.050656065,-2.5758736,9.745967,0.25842485,44.49375,-56.831253,-14.962501,0,
2022-04-15 10:18:29.449,0.021141773,-0.11209043,-0.06494863,40.434406,-86.9152514,6.8636208,-0.059540987,0.023237228,-0.11464931,-2.14038,9.526425,0.098703936,44.475002,-56.737503,-15.000001,0,
2022-04-15 10:18:29.651,-0.051571,-0.044491027,-0.015631903,40.434406,-86.9152514,6.8636208,-0.04116273,-0.047343254,-0.030783469,-2.2929223,9.225528,0.02751746,44.381252,-56.5875,-14.962501,0,
2022-04-15 10:18:29.849,-0.056430787,0.049069583,-0.23853458,40.4344767,-86.9152517,8.223556,-0.23119378,0.068226814,0.06622344,-1.8783658,9.65504,-0.30149564,44.30625,-56.475002,-15.0375,0,
2022-04-15 10:18:30.05,0.024552934,-0.08807357,0.17276593,40.4344767,-86.9152517,8.223556,0.15804553,-0.07387447,-0.08815917,-2.605784,10.176675,0.19680966,44.4,-56.456253,-15.187501,0,
2022-04-15 10:18:30.249,-0.08666703,-0.010195121,-0.059745993,40.4344767,-86.9152517,8.223556,-0.09456563,-0.044772148,0.015410848,-2.9772696,9.503694,0.12801601,44.381252,-56.60625,-15.375001,0,
2022-04-15 10:18:30.449,-0.14982158,0.13455588,-0.1118148,40.4344767,-86.9152517,8.223556,-0.14771938,-0.042241096,0.17160715,-2.2941186,9.704092,-0.5778667,44.4375,-56.643753,-15.431251,0,
2022-04-15 10:18:30.649,-0.15314937,0.2286622,-0.06272963,40.4344767,-86.9152517,8.223556,-0.11020279,-0.05963993,0.2529319,-2.4628127,9.549157,0.89491564,44.381252,-56.7,-15.543751,0,
2022-04-15 10:18:30.849,-0.048541784,0.05754952,0.026458392,40.4345583,-86.9152551,9.366368,0.008848906,-0.037353516,0.0699622,-2.4628127,9.549157,0.89491564,44.362503,-56.79375,-15.637501,0,
2022-04-15 10:18:31.049,-0.01612933,0.057494983,0.026623338,40.4345583,-86.9152551,9.366368,0.020745993,-0.011644363,0.06089863,-2.245066,9.929616,0.51206404,44.456253,-56.775,-15.712501,0,
2022-04-15 10:18:31.248,-0.049168006,0.09536887,-0.03265177,40.4345583,-86.9152551,9.366368,-0.044533253,-0.0059194565,0.102764785,-2.5064816,9.327223,0.56769717,44.475002,-57.000004,-15.7875,0,
2022-04-15 10:18:31.448,-0.027429,0.054079916,0.061209913,40.4345583,-86.9152551,9.366368,0.0483191,-0.03565216,0.06178859,-2.1535404,9.454042,0.48215377,44.475002,-57.15,-15.806251,0,
2022-04-15 10:18:31.648,-0.052817464,0.11526004,-0.0011738711,40.4345583,-86.9152551,9.366368,-0.019120216,-0.029704094,0.12177038,-1.4919249,9.464211,0.59581286,44.475002,-57.05625,-15.637501,0,
2022-04-15 10:18:31.848,0.043465856,0.15022157,0.15639289,40.4346498,-86.9152599,10.320296,0.16066861,0.016812325,0.15105456,-1.4919249,9.464211,0.59581286,44.53125,-56.850002,-15.543751,0,
2022-04-15 10:18:32.048,0.03173409,0.16117665,0.07613525,40.4346498,-86.9152599,10.320296,0.08493471,0.06526756,0.14597183,-3.7770705,9.382257,1.2514462,44.5875,-56.718754,-15.675,0,
2022-04-15 10:18:32.247,0.07018697,-0.20715564,0.0059911897,40.4346498,-86.9152599,10.320296,0.02190113,0.012761116,-0.21733168,-2.2989044,9.656236,0.41934216,44.737503,-56.643753,-15.675,0,
2022-04-15 10:18:32.447,0.014726312,0.045278452,-0.1696867,40.4346498,-86.9152599,10.320296,-0.14878249,0.08954525,0.03009981,-2.53041,9.440882,0.5629115,44.8875,-56.662502,-15.69375,0,
2022-04-15 10:18:32.647,-0.06503062,0.04232074,0.076068826,40.4346498,-86.9152599,10.320296,0.05040574,-0.07503986,0.060289085,-1.9686948,9.272188,0.69092757,44.8875,-56.812504,-15.675,0,
2022-04-15 10:18:32.847,-0.078699626,0.032836646,0.045021612,40.4347505,-86.9152631,11.183995,0.016677141,-0.07973099,0.05161071,-1.9686948,9.272188,0.69092757,44.8875,-56.737503,-15.637501,0,
2022-04-15 10:18:33.047,-0.08647823,0.1008341,8.70632E-4,40.4347505,-86.9152631,11.183995,-0.027731657,-0.056401253,0.11703253,-2.0548365,9.110672,0.8033902,44.86875,-56.737503,-15.675,0,
2022-04-15 10:18:33.247,-0.047530107,-0.018353075,-0.08796549,40.4347505,-86.9152631,11.183995,-0.100535154,-0.011849403,-0.009281516,-2.9886355,9.543175,0.68135625,44.775,-56.831253,-15.7875,0,
2022-04-15 10:18:33.447,-0.051135972,0.07698781,-0.03862649,40.4347505,-86.9152631,11.183995,-0.052382946,-0.0067691803,0.08511299,-3.5413775,10.919646,1.0516455,44.71875,-56.831253,-15.731251,0,
2022-04-15 10:18:33.647,0.057942897,0.031608336,-0.2243343,40.4347505,-86.9152631,11.183995,-0.16697955,0.1631298,0.01374191,-2.7379873,10.150353,0.078963146,44.5875,-56.8875,-15.750001,0,
2022-04-15 10:18:33.847,-0.12403357,-0.23476982,0.16041175,40.4348576,-86.9152657,11.787299,0.055586338,-0.23629284,-0.19315535,-2.7379873,10.150353,0.078963146,44.550003,-57.037502,-15.843751,0,
2022-04-15 10:18:34.048,-0.19966927,0.19723842,-0.20841128,40.4348576,-86.9152657,11.787299,-0.25336194,-0.008954048,0.24069405,-3.2123644,9.554541,0.4660022,44.49375,-57.05625,-15.8625,0,
2022-04-15 10:18:34.247,-0.032348115,-0.21810782,-0.12142483,40.4348576,-86.9152657,11.787299,-0.13048458,-0.023547173,-0.21396428,-1.6127625,9.199805,0.37627137,44.456253,-57.000004,-15.88125,0,
2022-04-15 10:18:34.448,-0.015780376,0.07305124,0.010328003,40.4348576,-86.9152657,11.787299,0.0075879097,-0.01282692,0.07395989,-0.9164511,9.348758,-0.23569304,44.475002,-57.131252,-15.900001,0,
2022-04-15 10:18:34.647,0.049811505,0.10710146,0.10359405,40.4348576,-86.9152657,11.787299,0.11257863,0.040078163,0.1019972,-2.2085752,9.399008,0.8913264,44.60625,-57.206253,-16.0125,0,
2022-04-15 10:18:34.848,0.023013111,-0.07732822,0.19030221,40.4349659,-86.9152741,12.563833,0.18878579,-0.056141853,-0.062707245,-2.2085752,9.399008,0.8913264,44.643753,-57.24375,-15.95625,0,
2022-04-15 10:18:35.048,0.05090784,0.13390225,-0.00261846,40.4349659,-86.9152741,12.563833,0.0029547215,0.07798672,0.120156646,-1.899303,9.470194,1.1270195,44.662502,-57.393753,-16.050001,0,
2022-04-15 10:18:35.248,0.07272247,0.035175268,-0.0012338063,40.4349659,-86.9152741,12.563833,0.019866943,0.07686424,0.01498574,-2.5477579,9.538389,1.1042876,44.71875,-57.506252,-16.0125,0,
2022-04-15 10:18:35.445,0.041448366,-0.007052078,0.07155758,40.4349659,-86.9152741,12.563833,0.08164334,0.0073366165,-0.012989461,-1.9441684,9.785448,0.27876383,44.643753,-57.43125,-15.993751,0,
2022-04-15 10:18:35.645,0.060388025,0.095472716,0.05096833,40.4349659,-86.9152741,12.563833,0.06502032,0.06080532,0.08622408,-1.8101703,9.264411,0.82013994,44.5875,-57.45,-16.03125,0,
2022-04-15 10:18:35.845,-0.08102225,-0.12115145,0.04412696,40.435089,-86.9152807,13.266574,0.019068241,-0.11398888,-0.099158466,-1.8101703,9.264411,0.82013994,44.5875,-57.506252,-16.1625,0,
2022-04-15 10:18:36.045,-0.012952643,-0.012181157,0.005413903,40.435089,-86.9152807,13.266574,0.0016503334,-0.016804695,-0.0077679157,-2.4681966,9.314062,1.1312069,44.475002,-57.6375,-16.3125,0,
2022-04-15 10:18:36.244,0.02774699,0.18493566,-0.16069043,40.435089,-86.9152807,13.266574,-0.124702215,0.14411831,0.1564346,-2.9240294,9.49472,0.72502524,44.30625,-57.73125,-16.29375,0,
2022-04-15 10:18:36.445,-0.046720378,-0.12291963,3.1391066E-4,40.435089,-86.9152807,13.266574,-0.012714863,-0.072582245,-0.10891408,-2.07697,9.101699,0.8961121,44.2125,-57.768753,-16.425001,0,
2022-04-15 10:18:36.645,-0.10304905,-0.01718004,0.010274186,40.435089,-86.9152807,13.266574,-0.022822857,-0.10207081,0.008971274,-2.3276181,9.466006,1.0432707,44.11875,-57.80625,-16.48125,0,
2022-04-15 10:18:36.844,-0.046277985,0.181041,-0.01615434,40.4352125,-86.9152854,13.93547,-0.034712315,0.009495735,0.18407428,-2.3276181,9.466006,1.0432707,43.987503,-57.843754,-16.59375,0,
2022-04-15 10:18:37.044,-0.0065667666,0.10981685,-0.09363226,40.4352125,-86.9152854,13.93547,-0.07214761,0.076639175,0.09894961,-3.4073794,9.29492,0.6556334,43.875,-57.99375,-16.518751,0,
2022-04-15 10:18:37.244,-0.16167454,-0.116023555,-0.052485745,40.4352125,-86.9152854,13.93547,-0.084175825,-0.17116737,-0.077272475,-2.5609183,9.591031,1.4590236,43.818752,-58.050003,-16.575,0,
2022-04-15 10:18:37.444,-0.023235057,0.17451425,-0.1152142,40.4352125,-86.9152854,13.93547,-0.12873244,0.07027435,0.15086043,-3.5724843,9.756734,1.7108682,43.706253,-58.031254,-16.59375,0,
2022-04-15 10:18:37.644,0.03595121,0.023390098,-0.010571954,40.4352125,-86.9152854,13.93547,0.009568214,0.04246044,0.0075440407,-3.973282,10.04806,0.9774681,43.7625,-57.9,-16.575,0,
2022-04-15 10:18:37.843,-0.032698523,-0.012607238,0.020767603,40.4353439,-86.9152895,14.448224,0.0019140244,-0.0406332,0.002169907,-3.973282,10.04806,0.9774681,43.7625,-58.031254,-16.59375,0,
2022-04-15 10:18:38.043,3.7798216E-4,0.009125526,0.011343792,40.4353439,-86.9152895,14.448224,0.010894537,-0.0021982193,0.009411514,-2.0632114,9.44806,0.5024927,43.7625,-58.10625,-16.612501,0,
2022-04-15 10:18:38.243,-0.037020124,0.025782878,0.021579534,40.4353439,-86.9152895,14.448224,0.005325079,-0.03623867,0.034048855,-2.251646,9.958329,0.35832518,43.7625,-58.068752,-16.575,0,
2022-04-15 10:18:38.444,-0.005518129,-0.04138266,-0.05730297,40.4353439,-86.9152895,14.448224,-0.05642295,0.0056476593,-0.042557716,-2.9431717,9.610772,0.8333005,43.706253,-58.0875,-16.518751,0,
2022-04-15 10:18:38.642,-0.08490372,0.0027463362,0.0068081995,40.4353439,-86.9152895,14.448224,-0.03457856,-0.07236385,0.028815448,-3.2398818,10.100702,0.46002015,43.74375,-58.031254,-16.5375,0,
2022-04-15 10:18:38.842,0.027152177,0.06944891,-0.03303241,40.4354765,-86.9152951,14.8325615,-0.0074961185,0.05847931,0.05635166,-3.2398818,10.100702,0.46002015,43.706253,-58.031254,-16.63125,0,
2022-04-15 10:18:39.042,-0.005586137,0.037819874,-0.03341909,40.4354765,-86.9152951,14.8325615,-0.031567812,0.017092705,0.035912335,-2.1996021,9.19143,0.59342,43.74375,-58.162502,-16.556252,0,
2022-04-15 10:18:39.243,-0.067530096,-0.005305873,-0.032649823,40.4354765,-86.9152951,14.8325615,-0.049987793,-0.055693626,0.0073428154,-2.3629124,9.120842,1.2669996,43.65,-58.218754,-16.5,0,
2022-04-15 10:18:39.442,-0.051141188,0.0033287946,0.0036999,40.4354765,-86.9152951,14.8325615,-0.019036293,-0.040335655,0.025511682,-4.3322053,8.967701,1.3555341,43.66875,-58.0875,-16.5,0,
2022-04-15 10:18:39.642,-0.02984079,0.010030756,-0.022568898,40.4354765,-86.9152951,14.8325615,-0.031962633,-0.015241623,0.015701175,-2.6141586,9.357133,0.8315059,43.706253,-58.0875,-16.44375,0,
2022-04-15 10:18:39.842,0.01629065,0.051047187,-0.04533771,40.435612,-86.9153043,15.221952,-0.034570932,0.045506477,0.040751934,-2.6141586,9.357133,0.8315059,43.74375,-58.143753,-16.425001,0,
2022-04-15 10:18:40.043,-0.01640046,-0.02182424,0.010837734,40.435612,-86.9153043,15.221952,0.0052046776,-0.023648262,-0.016625285,-2.0793629,9.312267,0.90329057,43.875,-58.143753,-16.44375,0,
2022-04-15 10:18:40.242,-0.07183599,-0.029384065,0.15436363,40.435612,-86.9153043,15.221952,0.13941836,-0.0989418,0.024999917,-3.315854,9.419945,1.896312,43.912502,-58.237503,-16.518751,0,
2022-04-15 10:18:40.441,-0.034062915,0.07028212,0.20015775,40.435612,-86.9153043,15.221952,0.1591332,-0.12081432,0.07901585,-3.6460636,10.956137,0.09092726,43.95,-58.256252,-16.44375,0,
2022-04-15 10:18:40.641,0.21818024,0.10977478,-0.32686704,40.435612,-86.9153043,15.221952,-0.22933316,0.33168793,0.062326312,-1.2987045,9.385248,0.4761717,43.93125,-58.29375,-16.40625,0,
2022-04-15 10:18:40.841,-0.13349272,-0.12444439,0.041976966,40.4357496,-86.9153154,15.582615,-0.0073649883,-0.15639877,-0.10273248,-1.2987045,9.385248,0.4761717,43.912502,-58.350002,-16.3125,0,
2022-04-15 10:18:41.042,-0.14088155,-0.12675409,0.13998216,40.4357496,-86.9153154,15.582615,0.10552311,-0.19150257,-0.08775455,-1.4303098,9.316455,1.0510473,43.818752,-58.275,-16.25625,0,
2022-04-15 10:18:41.241,0.033867985,0.40538338,-0.18133056,40.4357496,-86.9153154,15.582615,-0.19841123,0.18585777,0.3527795,-2.5639095,9.692726,1.474577,43.8375,-58.237503,-16.35,0,
2022-04-15 10:18:41.441,0.101365715,0.2399447,-0.13666812,40.4357496,-86.9153154,15.582615,-0.1211555,0.19649982,0.18230689,-2.6051857,9.352945,1.4027922,43.7625,-58.237503,-16.368752,0,
2022-04-15 10:18:41.642,-0.23744956,0.16640311,0.007005181,40.4357496,-86.9153154,15.582615,-0.06429744,-0.17893124,0.2190224,-2.4658036,9.498908,1.5840486,43.59375,-58.256252,-16.40625,0,
2022-04-15 10:18:41.841,-0.21117182,0.14655936,-0.015290178,40.4358889,-86.9153249,15.697728,-0.07377648,-0.15314674,0.19341683,-2.7218359,9.367901,1.8299111,43.36875,-58.18125,-16.368752,0,
2022-04-15 10:18:42.041,-0.07573626,0.17639947,-0.03592221,40.4358889,-86.9153249,15.697728,-0.07363129,-0.017560959,0.18003666,-2.4771698,9.1872425,1.8011973,43.29375,-58.162502,-16.40625,0,
2022-04-15 10:18:42.24,-0.15973513,0.18659915,-0.10628689,40.4358889,-86.9153249,15.697728,-0.15852165,-0.06496334,0.20562613,-3.8027935,9.58146,2.1601207,43.18125,-58.2,-16.48125,0,
2022-04-15 10:18:42.44,-0.045273058,0.1221901,-0.1289595,40.4358889,-86.9153249,15.697728,-0.15444517,-0.0016546249,0.098765254,-2.4705894,8.968299,2.0668006,43.162502,-58.0875,-16.650002,0,
2022-04-15 10:18:42.641,-0.1493608,0.026105577,-0.064940386,40.4358889,-86.9153249,15.697728,-0.08854556,-0.12927914,0.05151689,-2.6781666,9.23809,2.0685952,43.10625,-58.162502,-16.743752,0,
2022-04-15 10:18:42.842,-0.025521778,0.07038654,0.06048829,40.4360274,-86.9153294,15.230112,0.042634726,-0.010853767,0.0856092,-2.3670998,9.365508,2.0919251,42.825,-58.275,-16.6875,0,
2022-04-15 10:18:43.042,-0.027472591,0.0132551845,0.0053320536,40.4360274,-86.9153294,15.230112,-0.0032823086,-0.021486282,0.022055387,-3.2524443,9.459426,1.68694,42.61875,-58.29375,-16.6875,0,
2022-04-15 10:18:43.24,0.023087453,-0.030643284,-0.04695425,40.4360274,-86.9153294,15.230112,-0.037121058,0.017656326,-0.04457605,-2.7158537,8.9013,1.8664017,42.6375,-58.350002,-16.575,0,
2022-04-15 10:18:43.439,-0.016290762,-0.06161303,-0.04294982,40.4360274,-86.9153294,15.230112,-0.034195185,-0.033293724,-0.060236692,-3.3128629,9.212367,2.07697,42.693752,-58.312504,-16.556252,0,
2022-04-15 10:18:43.64,-0.015116463,0.009152893,-0.1836268,40.4360274,-86.9153294,15.230112,-0.15911126,0.091653824,0.017727613,-2.1062822,8.531011,-0.25004998,42.6375,-58.350002,-16.48125,0,
2022-04-15 10:18:43.839,-0.09954534,-0.13677336,-0.121278174,40.4361605,-86.9153413,14.789682,-0.123156786,-0.10863209,-0.12789094,-1.698904,6.9391856,1.2095718,42.581253,-58.331253,-16.462502,0,
2022-04-15 10:18:44.039,-0.16394569,-0.03241292,-0.16884404,40.4361605,-86.9153413,14.789682,-0.21819878,-0.09346485,0.009524345,-4.017549,9.499506,1.4895321,42.54375,-58.500004,-16.331251,0,
2022-04-15 10:18:44.239,0.09614026,-0.16211224,-0.1532989,40.4361605,-86.9153413,14.789682,-0.10953021,0.06762791,-0.20604241,-2.3162522,8.917452,1.7126628,42.5625,-58.593754,-16.181252,0,
2022-04-15 10:18:44.438,-0.037245803,-0.10713736,-0.039816506,40.4361605,-86.9153413,14.789682,-0.041849375,-0.063295364,-0.093238115,-3.260819,9.008379,1.5290136,42.65625,-58.66875,-16.1625,0,
2022-04-15 10:18:44.64,-0.037904523,0.014026263,-0.06275389,40.4361605,-86.9153413,14.789682,-0.070721865,-0.019040108,0.014402509,-3.246462,9.069396,1.7413766,42.7125,-58.7625,-16.237501,0,
2022-04-15 10:18:44.838,-0.00891925,-0.0050307624,-0.20273153,40.4362902,-86.9153602,14.527716,-0.19785595,0.02513218,-0.037766814,-3.246462,9.069396,1.7413766,42.693752,-58.800003,-16.3125,0,
2022-04-15 10:18:45.038,-0.029635219,-0.048039224,7.794257E-4,40.4362902,-86.9153602,14.527716,-0.0076744556,-0.04236698,-0.03650701,-2.955136,9.379267,1.274178,42.73125,-58.93125,-16.331251,0,
2022-04-15 10:18:45.238,-0.0834619,-0.0023174118,-0.06311839,40.4362902,-86.9153602,14.527716,-0.08428764,-0.05999565,0.01585269,-3.330809,9.305687,1.5499508,42.7125,-59.04375,-16.35,0,
2022-04-15 10:18:45.438,0.058071386,0.04253146,0.08024813,40.4362902,-86.9153602,14.527716,0.09295726,0.041614532,0.035329223,-2.597409,9.589835,1.2029916,42.787502,-59.062504,-16.29375,0,
2022-04-15 10:18:45.638,-0.08374349,-0.07927515,0.040900216,40.4362902,-86.9153602,14.527716,0.016495705,-0.108971596,-0.05313599,-2.2025933,9.446265,1.1150553,42.84375,-59.04375,-16.331251,0,
2022-04-15 10:18:45.838,-0.0635786,0.13164715,-0.105413236,40.4364172,-86.915389,14.257225,-0.13099813,0.0042181015,0.123720884,-3.2147572,9.227921,1.8011973,42.84375,-59.04375,-16.331251,0,
2022-04-15 10:18:46.037,-0.012727972,-0.08288546,0.1040548,40.4364172,-86.915389,14.257225,0.10107732,-0.062394142,-0.06123519,-2.6362925,9.393623,1.3627125,43.0125,-58.93125,-16.3125,0,
2022-04-15 10:18:46.237,0.032372892,0.11901229,-0.08415215,40.4364172,-86.915389,14.257225,-0.07064676,0.08546734,0.099989414,-2.2277179,9.57787,0.9499506,43.162502,-58.893753,-16.181252,0,
2022-04-15 10:18:46.437,0.0018655546,-0.16069464,0.066721305,40.4364172,-86.915389,14.257225,0.071662664,-0.06743336,-0.14351022,-2.8959136,9.3308115,1.3423735,43.331253,-58.818752,-16.181252,0,
2022-04-15 10:18:46.637,-0.021369051,-0.020466145,0.07611952,40.4364172,-86.915389,14.257225,0.0706203,-0.04092598,-0.002742052,-2.42034,9.364909,1.4859428,43.443752,-58.800003,-16.125,0,
2022-04-15 10:18:46.837,0.11791533,-0.0123876855,-0.010517843,40.4365416,-86.9154238,13.989644,0.017570734,0.109742165,-0.042614937,-2.42034,9.364909,1.4859428,43.725002,-58.725002,-15.95625,0,
2022-04-15 10:18:47.037,-0.02125672,-0.09132091,-0.051547498,40.4365416,-86.9154238,13.989644,-0.05480981,-0.02507782,-0.08840525,-2.210968,9.6071825,0.863809,43.912502,-58.65,-15.843751,0,
2022-04-15 10:18:47.236,-0.03225515,-0.036264963,0.030336311,40.4365416,-86.9154238,13.989644,0.017674685,-0.050239563,-0.020962477,-2.9778678,9.108279,1.0600204,44.0625,-58.631252,-15.731251,0,
2022-04-15 10:18:47.437,0.038972586,-0.012348842,-0.07313122,40.4365416,-86.9154238,13.989644,-0.058265448,0.05103779,-0.0319345,-2.8839495,9.595219,1.2520444,44.25,-58.687504,-15.675,0,
2022-04-15 10:18:47.636,0.037801966,0.12872662,-0.05527676,40.4365416,-86.9154238,13.989644,-0.032775164,0.093509674,0.10600364,-2.824727,8.874979,0.80817586,44.25,-58.725002,-15.618751,0,
2022-04-15 10:18:47.837,0.039652638,-0.033220425,-0.03706764,40.436661,-86.9154656,13.904182,-0.022834063,0.03823948,-0.04545641,-2.3132613,9.346365,1.0229317,44.4,-58.7625,-15.50625,0,
2022-04-15 10:18:48.036,-0.18667287,-0.15991464,0.08319698,40.436661,-86.9154656,13.904182,0.050463676,-0.24499798,-0.069069505,-3.5694933,9.416355,1.6223338,44.456253,-58.800003,-15.39375,0,
2022-04-15 10:18:48.236,0.0046048965,0.14217553,-0.12730792,40.436661,-86.9154656,13.904182,-0.13258052,0.06133938,0.12289131,-1.7461623,9.285947,1.1222339,44.60625,-58.818752,-15.3,0,
2022-04-15 10:18:48.436,0.024331,-0.0799933,7.547289E-4,40.436661,-86.9154656,13.904182,0.012648344,0.0019369125,-0.08263028,-2.2821546,9.239286,1.294517,44.662502,-58.8375,-15.281251,0,
2022-04-15 10:18:48.637,-0.052860275,0.031085271,-0.05607474,40.436661,-86.9154656,13.904182,-0.07027984,-0.0194664,0.039833188,-2.7930222,9.239286,0.8703892,44.737503,-58.818752,-15.31875,0,
2022-04-15 10:18:48.835,-0.036815226,-0.055923164,0.021695556,40.4367845,-86.9155133,13.845841,0.0072324276,-0.05692196,-0.040755868,-2.7930222,9.239286,0.8703892,44.86875,-58.800003,-15.262501,0,
2022-04-15 10:18:49.035,-0.034840815,0.056765057,0.04684583,40.4367845,-86.9155133,13.845841,0.03319764,-0.02460289,0.07016623,-2.8660033,9.734601,1.4201403,45.112503,-58.725002,-15.225,0,
2022-04-15 10:18:49.236,0.061086636,0.08544548,-0.06961149,40.4367845,-86.9155133,13.845841,-0.0626266,0.09533501,0.053548217,-2.6961129,9.081959,1.41356,45.375,-58.725002,-15.150001,0,
2022-04-15 10:18:49.435,-0.022596473,-0.021169197,0.072059296,40.4367845,-86.9155133,13.845841,0.0678885,-0.039141655,-0.00321877,-2.7146573,9.504292,1.4943178,45.600002,-58.631252,-15.056251,0,
2022-04-15 10:18:49.636,-0.03206221,-0.009891115,0.18047847,40.4367845,-86.9155133,13.845841,0.17665839,-0.029468536,0.040270567,-2.9389844,8.161918,1.9070797,45.825,-58.575,-14.981251,0,
2022-04-15 10:18:49.835,0.07461205,0.04660808,-0.19363123,40.4369052,-86.9155749,13.823827,-0.12046909,0.17159367,0.035709023,-2.6943183,10.377672,-0.5198407,46.068752,-58.518753,-14.906251,0,
2022-04-15 10:18:50.035,-0.00902611,-0.023558263,-0.12556538,40.4369052,-86.9155749,13.823827,-0.023773432,-0.10791969,-0.06474018,-5.1906304,8.021339,4.262215,46.29375,-58.4625,-14.83125,0,
2022-04-15 10:18:50.235,-0.044390135,0.103525005,0.023664368,40.4369052,-86.9155749,13.823827,0.006542444,-0.021191597,0.11294258,-2.2438695,9.477372,1.1186446,46.518753,-58.500004,-14.64375,0,
2022-04-15 10:18:50.434,0.018338606,-0.0716483,0.09090304,40.4369052,-86.9155749,13.823827,0.094252825,-0.02968502,-0.06299484,-3.1680973,9.432507,1.1335998,46.706253,-58.425003,-14.606251,0,
2022-04-15 10:18:50.635,-0.04060942,0.011836963,-0.045791056,40.4369052,-86.9155749,13.823827,-0.056874514,-0.013938904,0.021378875,-3.0358937,11.121242,0.18424734,46.85625,-58.350002,-14.531251,0,
2022-04-15 10:18:50.834,0.05313816,-0.0069379266,-0.03446323,40.4370203,-86.9156417,13.744258,-0.02602315,0.05254364,-0.024929404,-1.9920249,8.09791,1.4171492,47.04375,-58.2,-14.475,0,
2022-04-15 10:18:51.037,-0.059914377,-0.22885436,0.15113021,40.4370203,-86.9156417,13.744258,0.12176633,-0.13418198,-0.2144121,-1.2975081,9.637094,0.27756742,47.15625,-58.2,-14.512501,0,
2022-04-15 10:18:51.234,-0.19387722,0.2835536,-0.17425646,40.4370203,-86.9156417,13.744258,-0.22701955,-0.03298664,0.30940318,-3.4193435,9.334401,1.2119647,47.287502,-58.2,-14.475,0,
2022-04-15 10:18:51.434,0.17690107,-0.10248174,0.12092084,40.4370203,-86.9156417,13.744258,0.16148543,0.110964775,-0.13426697,-2.9838498,8.967701,1.3627125,47.287502,-58.162502,-14.475,0,
2022-04-15 10:18:51.635,-0.040272795,-0.056656417,0.021530218,40.4370203,-86.9156417,13.744258,0.009601355,-0.05884075,-0.04172504,-2.745764,9.832706,0.8805587,47.381252,-58.125004,-14.418751,0,
2022-04-15 10:18:51.835,-0.006858943,0.09599942,-0.07667019,40.4371313,-86.9157123,13.830722,-0.09080958,0.03540516,0.075108886,-3.964309,9.199206,1.8873389,47.5125,-58.031254,-14.437501,0,
2022-04-15 10:18:52.033,-0.007978464,-0.13016254,0.039357264,40.4371313,-86.9157123,13.830722,0.036873102,-0.049773216,-0.121317506,-2.2223341,9.281759,0.738784,47.625,-57.99375,-14.38125,0,
2022-04-15 10:18:52.234,0.014100015,0.117684364,0.0069960686,40.4371313,-86.9157123,13.830722,0.004762411,0.052254677,0.10650885,-3.370889,9.656834,1.2777673,47.775,-57.975002,-14.400001,0,
2022-04-15 10:18:52.433,0.09455482,0.032449193,-0.12098738,40.4371313,-86.9157123,13.830722,-0.09429765,0.12499714,-0.010732174,-2.9341989,9.224331,1.0444671,47.925003,-58.0125,-14.212501,0,
